pc_time_s,pc_time_iso,cf_time_ms,session_id,motif_id,motif_type,motif_phase,rep_index,motif_param_json,flight_phase,cmd_vx_m_s,cmd_vy_m_s,cmd_yaw_rate_deg_s,cmd_height_m,cmd_vx_raw_m_s,cmd_vy_raw_m_s,cmd_yaw_rate_raw_deg_s,cmd_height_raw_m,safety_override_active,acc_x_g,acc_y_g,acc_z_g,gyro_x_dps,gyro_y_dps,gyro_z_dps,flow_delta_x_px,flow_delta_y_px,flow_squal,zrange_mm,zrange_m,x_m,y_m,z_m,vx_m_s,vy_m_s,vz_m_s,roll_deg,pitch_deg,yaw_deg,kalman_state_z_m,kalman_state_pz,kalman_var_z,kalman_var_pz,battery_v,battery_level_pct,pm_state,motor_m1,motor_m2,motor_m3,motor_m4,range_front_m,range_back_m,range_left_m,range_right_m,range_up_m,baro_asl_m,baro_pressure_hpa,baro_temp_c,safety_flag,should_land,event
1783703780.9629803,2026-07-10T10:16:20,,20260710_101616,,,,,,ground_idle,,,,,,,,,False,,,,,,,,,,,,,,,,,,,,,,,,,,,,,,,,,,,,,,,,,False,
1783703780.9733362,2026-07-10T10:16:20,212561,20260710_101616,,,,,,ground_idle,,,,,,,,,False,0.022573357447981834,0.002503488678485155,1.0015112161636353,-0.25897663831710815,-0.200386181473732,-0.17384804785251617,,,,,,,,,,,,,,,,,,,,,,,,,,,,,,,,,,,False,
1783703780.983495,2026-07-10T10:16:20,212575,20260710_101616,,,,,,ground_idle,,,,,,,,,False,0.023998916149139404,0.0021100020967423916,1.001686930656433,-0.2792915403842926,-0.29422757029533386,0.4265875816345215,0.0,-1.0,79.0,23.0,0.023,0.6797274947166443,-0.448269248008728,0.02327909879386425,0.0055726091377437115,0.0021666886750608683,0.009545787237584591,,,,,,,,,,,,,,,,,,,,,,,,False,
1783703780.99366,2026-07-10T10:16:20,212583,20260710_101616,,,,,,ground_idle,,,,,,,,,False,0.023349609225988388,0.003881583223119378,1.0004551410675049,0.28780853748321533,0.18655696511268616,-0.05672917887568474,0.0,-1.0,79.0,23.0,0.023,0.6797274947166443,-0.448269248008728,0.02327909879386425,0.0055726091377437115,0.0021666886750608683,0.009545787237584591,0.16514500975608826,1.2550073862075806,-3.627150774002075,,,,,,,,,,,,,,,,,,,,,False,
1783703781.003818,2026-07-10T10:16:21,212595,20260710_101616,,,,,,ground_idle,,,,,,,,,False,0.02256554551422596,0.00417283084243536,0.9984100461006165,0.03324507921934128,0.049509238451719284,0.1013345718383789,0.0,0.0,53.0,23.0,0.023,0.6789742112159729,-0.4482511579990387,0.023272281512618065,0.0019389259396120906,0.002258162247017026,0.00868287868797779,0.16514500975608826,1.2550073862075806,-3.627150774002075,,,,,,,,,,,,,,,,,,,,,False,
1783703781.0139718,2026-07-10T10:16:21,212603,20260710_101616,,,,,,ground_idle,,,,,,,,,False,0.02363945171236992,0.0038278845604509115,1.0002951622009277,-0.22747431695461273,0.30452150106430054,0.2533281445503235,0.0,-1.0,62.0,23.0,0.023,0.6789742112159729,-0.4482511579990387,0.023272281512618065,0.0019389259396120906,0.002258162247017026,0.00868287868797779,0.16708332300186157,1.2828458547592163,-3.6201653480529785,,,,,,,,,,,,,,,,,,,,,False,
1783703781.0241287,2026-07-10T10:16:21,212613,20260710_101616,,,,,,ground_idle,,,,,,,,,False,0.023804543539881706,0.003905312158167362,1.0004266500473022,0.024775169789791107,0.040688734501600266,0.03962079435586929,0.0,0.0,77.0,23.0,0.023,0.6789742112159729,-0.4482511579990387,0.023272281512618065,0.0019389259396120906,0.002258162247017026,0.00868287868797779,0.16708332300186157,1.2828458547592163,-3.6201653480529785,0.02344563789665699,0.00859125517308712,3.3150979561469285e-06,0.00018463685410097241,3.695014715194702,10.0,0.0,0.0,0.0,0.0,0.0,32.766,32.766,0.28,32.766,2.837,,,,,False,
1783703781.0344338,2026-07-10T10:16:21,212623,20260710_101616,,,,,,ground_idle,,,,,,,,,False,0.025384532287716866,0.0014381121145561337,1.000290036201477,0.08809315413236618,0.03090221807360649,-0.12627258896827698,0.0,0.0,69.0,23.0,0.023,0.6793681979179382,-0.4482435882091522,0.02344563789665699,0.0036783511750400066,0.002185903023928404,0.00867837481200695,0.1658206284046173,1.2649329900741577,-3.6114213466644287,0.02344563789665699,0.00859125517308712,3.3150979561469285e-06,0.00018463685410097241,3.695014715194702,10.0,0.0,0.0,0.0,0.0,0.0,32.766,32.766,0.28,32.766,2.837,,,,,False,
1783703781.0449312,2026-07-10T10:16:21,212635,20260710_101616,,,,,,ground_idle,,,,,,,,,False,0.02561948634684086,0.001421340275555849,1.000169038772583,-0.047402847558259964,-0.028337251394987106,0.2916747033596039,0.0,0.0,81.0,23.0,0.023,0.6794463396072388,-0.44819948077201843,0.0236203633248806,0.004201014060527086,0.0021170827094465494,0.008777118287980556,0.1658206284046173,1.2649329900741577,-3.6114213466644287,0.02344563789665699,0.00859125517308712,3.3150979561469285e-06,0.00018463685410097241,3.695014715194702,10.0,0.0,0.0,0.0,0.0,0.0,32.766,32.766,0.28,32.766,2.837,,,,,False,
1783703781.055146,2026-07-10T10:16:21,212643,20260710_101616,,,,,,ground_idle,,,,,,,,,False,0.02588297426700592,0.002095951233059168,0.9988982081413269,-0.22212104499340057,-0.029753990471363068,0.13832058012485504,2.0,-3.0,60.0,20.0,0.02,0.6794463396072388,-0.44819948077201843,0.0236203633248806,0.004201014060527086,0.0021170827094465494,0.008777118287980556,0.16802486777305603,1.2605602741241455,-3.605426549911499,0.02344563789665699,0.00859125517308712,3.3150979561469285e-06,0.00018463685410097241,3.695014715194702,10.0,0.0,0.0,0.0,0.0,0.0,32.766,32.766,0.28,32.766,2.837,,,,,False,
1783703781.0653577,2026-07-10T10:16:21,212655,20260710_101616,,,,,,ground_idle,,,,,,,,,False,0.025801729410886765,0.002193072810769081,1.0011892318725586,0.060349736362695694,0.1582859605550766,0.01998431421816349,-2.0,3.0,60.0,20.0,0.02,0.6793936491012573,-0.44822555780410767,0.02222338132560253,0.004158026073127985,0.0016798651777207851,0.0012813768116757274,0.16802486777305603,1.2605602741241455,-3.605426549911499,0.02344563789665699,0.00859125517308712,3.3150979561469285e-06,0.00018463685410097241,3.695014715194702,10.0,0.0,0.0,0.0,0.0,0.0,32.766,32.766,0.28,32.766,2.837,,,,,False,
1783703781.0755336,2026-07-10T10:16:21,212663,20260710_101616,,,,,,ground_idle,,,,,,,,,False,0.025395981967449188,0.003737194463610649,1.0031217336654663,-0.057234689593315125,-0.17295630276203156,0.12635834515094757,0.0,0.0,71.0,20.0,0.02,0.6793936491012573,-0.44822555780410767,0.02222338132560253,0.004158026073127985,0.0016798651777207851,0.0012813768116757274,0.16820092499256134,1.2664215564727783,-3.5983786582946777,0.02223699353635311,0.0013387356884777546,3.413195827306481e-06,0.00018980227469000965,3.7002933025360107,10.0,0.0,0.0,0.0,0.0,0.0,0.28200000000000003,32.766,0.28,32.766,2.837,2018.1380615234375,809.9961547851562,28.616424560546875,,False,
1783703781.0857372,2026-07-10T10:16:21,212675,20260710_101616,,,,,,ground_idle,,,,,,,,,False,0.023853862658143044,0.004835867788642645,1.0018399953842163,0.35249778628349304,-0.126200333237648,0.08344729989767075,0.0,-1.0,77.0,20.0,0.02,0.6797781586647034,-0.4482406675815582,0.022252541035413742,0.00610710121691227,0.001406099647283554,0.0017618463607504964,0.16820092499256134,1.2664215564727783,-3.5983786582946777,0.02223699353635311,0.0013387356884777546,3.413195827306481e-06,0.00018980227469000965,3.7002933025360107,10.0,0.0,0.0,0.0,0.0,0.0,0.28200000000000003,32.766,0.28,32.766,2.837,2018.1380615234375,809.9961547851562,28.616424560546875,,False,
1783703781.0959523,2026-07-10T10:16:21,212683,20260710_101616,,,,,,ground_idle,,,,,,,,,False,0.023734722286462784,0.004500427283346653,1.0011488199234009,0.00026747406809590757,0.12957780063152313,-0.16520428657531738,0.0,1.0,59.0,20.0,0.02,0.6797781586647034,-0.4482406675815582,0.022252541035413742,0.00610710121691227,0.001406099647283554,0.0017618463607504964,0.1694614738225937,1.2530990839004517,-3.591017961502075,0.02223699353635311,0.0013387356884777546,3.413195827306481e-06,0.00018980227469000965,3.7002933025360107,10.0,0.0,0.0,0.0,0.0,0.0,0.28200000000000003,32.766,0.28,32.766,2.837,2018.1380615234375,809.9961547851562,28.616424560546875,,False,
1783703781.1061497,2026-07-10T10:16:21,212695,20260710_101616,,,,,,ground_idle,,,,,,,,,False,0.022270726040005684,0.0018675531027838588,1.0017249584197998,-0.04047948867082596,-0.2730473279953003,-0.013243619352579117,0.0,2.0,51.0,23.0,0.023,0.6785816550254822,-0.44824475049972534,0.02259712480008602,0.0006292322068475187,0.0016798247816041112,0.0037207030691206455,0.1694614738225937,1.2530990839004517,-3.591017961502075,0.02223699353635311,0.0013387356884777546,3.413195827306481e-06,0.00018980227469000965,3.7002933025360107,10.0,0.0,0.0,0.0,0.0,0.0,0.28200000000000003,32.766,0.28,32.766,2.837,2018.1380615234375,809.9961547851562,28.616424560546875,,False,
1783703781.116367,2026-07-10T10:16:21,212703,20260710_101616,,,,,,ground_idle,,,,,,,,,False,0.022154729813337326,0.003660109592601657,1.0001800060272217,-0.005745778325945139,0.22709807753562927,0.10580457001924515,0.0,-1.0,68.0,23.0,0.023,0.6785816550254822,-0.44824475049972534,0.02259712480008602,0.0006292322068475187,0.0016798247816041112,0.0037207030691206455,0.17355826497077942,1.2941957712173462,-3.5858094692230225,0.02223699353635311,0.0013387356884777546,3.413195827306481e-06,0.00018980227469000965,3.7002933025360107,10.0,0.0,0.0,0.0,0.0,0.0,0.28200000000000003,32.766,0.28,32.766,2.837,2018.1380615234375,809.9961547851562,28.616424560546875,,False,
1783703781.1265988,2026-07-10T10:16:21,212715,20260710_101616,,,,,,ground_idle,,,,,,,,,False,0.024963712319731712,0.004128744825720787,0.9996455311775208,0.11811129003763199,-0.050915177911520004,-0.039771489799022675,0.0,0.0,68.0,23.0,0.023,0.6789566278457642,-0.4482467770576477,0.02267536148428917,0.0021324625704437494,0.0014386947732418776,0.003936474211513996,0.17355826497077942,1.2941957712173462,-3.5858094692230225,0.02267536148428917,0.0038852260913699865,3.3150713534269016e-06,0.0001846297673182562,3.695014715194702,10.0,0.0,0.0,0.0,0.0,0.0,0.28200000000000003,32.766,0.28,0.343,2.84,2018.1380615234375,809.9961547851562,28.616424560546875,,False,
1783703781.1367981,2026-07-10T10:16:21,212723,20260710_101616,,,,,,ground_idle,,,,,,,,,False,0.024608932435512543,0.004252387210726738,0.9997800588607788,0.05371887981891632,0.4216727912425995,0.07043905556201935,0.0,0.0,67.0,23.0,0.023,0.6789566278457642,-0.4482467770576477,0.02267536148428917,0.0021324625704437494,0.0014386947732418776,0.003936474211513996,0.17221127450466156,1.280069351196289,-3.578152656555176,0.02267536148428917,0.0038852260913699865,3.3150713534269016e-06,0.0001846297673182562,3.695014715194702,10.0,0.0,0.0,0.0,0.0,0.0,0.28200000000000003,32.766,0.28,0.343,2.84,2018.1380615234375,809.9961547851562,28.616424560546875,,False,
1783703781.1469898,2026-07-10T10:16:21,212735,20260710_101616,,,,,,ground_idle,,,,,,,,,False,0.02508111484348774,0.0022360295988619328,1.0005671977996826,0.01490748394280672,0.21979627013206482,-0.12458072602748871,0.0,-2.0,74.0,23.0,0.023,0.6796982884407043,-0.44826221466064453,0.022754326462745667,0.005671677179634571,0.001297667738981545,0.003978323191404343,0.17221127450466156,1.280069351196289,-3.578152656555176,0.02267536148428917,0.0038852260913699865,3.3150713534269016e-06,0.0001846297673182562,3.695014715194702,10.0,0.0,0.0,0.0,0.0,0.0,0.28200000000000003,32.766,0.28,0.343,2.84,2018.1380615234375,809.9961547851562,28.616424560546875,,False,
1783703781.1571689,2026-07-10T10:16:21,212743,20260710_101616,,,,,,ground_idle,,,,,,,,,False,0.022532153874635696,0.003334795357659459,1.0001492500305176,-0.11688659340143204,-0.16147451102733612,-0.010521630756556988,0.0,0.0,63.0,24.0,0.024,0.6796982884407043,-0.44826221466064453,0.022754326462745667,0.005671677179634571,0.001297667738981545,0.003978323191404343,0.17312434315681458,1.2520045042037964,-3.5689070224761963,0.02267536148428917,0.0038852260913699865,3.3150713534269016e-06,0.0001846297673182562,3.695014715194702,10.0,0.0,0.0,0.0,0.0,0.0,0.28200000000000003,32.766,0.28,0.343,2.84,2018.1380615234375,809.9961547851562,28.616424560546875,,False,
1783703781.167412,2026-07-10T10:16:21,212758,20260710_101616,,,,,,ground_idle,,,,,,,,,False,0.022864658385515213,0.004410895518958569,1.00058114528656,-0.18936151266098022,-0.09513670206069946,0.0691746175289154,0.0,1.0,66.0,24.0,0.024,0.6793308854103088,-0.4482457935810089,0.023381749168038368,0.0038494435139000416,0.0012834760127589107,0.0067228092812001705,0.17184573411941528,1.2660531997680664,-3.562682867050171,0.02267536148428917,0.0038852260913699865,3.3150713534269016e-06,0.0001846297673182562,3.695014715194702,10.0,0.0,0.0,0.0,0.0,0.0,0.28200000000000003,32.766,0.28,0.343,2.84,2018.1380615234375,809.9961547851562,28.616424560546875,,False,
1783703781.1775906,2026-07-10T10:16:21,212763,20260710_101616,,,,,,ground_idle,,,,,,,,,False,0.024626560509204865,0.0023552761413156986,1.0000914335250854,0.03336058929562569,-0.10553727298974991,-0.10093232244253159,0.0,0.0,64.0,24.0,0.024,0.6793308854103088,-0.4482457935810089,0.023381749168038368,0.0038494435139000416,0.0012834760127589107,0.0067228092812001705,0.17184573411941528,1.2660531997680664,-3.562682867050171,0.02344953827559948,0.006743200123310089,3.4132331165892538e-06,0.00018980246386490762,3.7002933025360107,10.0,0.0,0.0,0.0,0.0,0.0,0.28500000000000003,32.766,0.28,0.343,2.84,2018.274658203125,809.984130859375,28.624753952026367,,False,
1783703781.187774,2026-07-10T10:16:21,212778,20260710_101616,,,,,,ground_idle,,,,,,,,,False,0.023398879915475845,0.0032557130325585604,1.0003819465637207,0.3092081546783447,0.02657759189605713,0.02792956866323948,0.0,0.0,82.0,24.0,0.024,0.6794107556343079,-0.44821909070014954,0.023518044501543045,0.0041831848211586475,0.0013021688209846616,0.006866541225463152,0.16965565085411072,1.2623525857925415,-3.553633689880371,0.02344953827559948,0.006743200123310089,3.4132331165892538e-06,0.00018980246386490762,3.7002933025360107,10.0,0.0,0.0,0.0,0.0,0.0,0.28500000000000003,32.766,0.28,0.343,2.84,2018.274658203125,809.984130859375,28.624753952026367,,False,
1783703781.197947,2026-07-10T10:16:21,212783,20260710_101616,,,,,,ground_idle,,,,,,,,,False,0.021867254748940468,0.0035700604785233736,0.9996940493583679,0.08274765312671661,-0.4053475558757782,0.15435479581356049,0.0,0.0,58.0,24.0,0.024,0.6794107556343079,-0.44821909070014954,0.023518044501543045,0.0041831848211586475,0.0013021688209846616,0.006866541225463152,0.16965565085411072,1.2623525857925415,-3.553633689880371,0.02344953827559948,0.006743200123310089,3.4132331165892538e-06,0.00018980246386490762,3.7002933025360107,10.0,0.0,0.0,0.0,0.0,0.0,0.28500000000000003,32.766,0.28,0.343,2.84,2018.274658203125,809.984130859375,28.624753952026367,,False,
1783703781.2081125,2026-07-10T10:16:21,212798,20260710_101616,,,,,,ground_idle,,,,,,,,,False,0.02081385999917984,0.0021768868900835514,0.9981086850166321,-0.15871074795722961,-0.033627402037382126,0.005503596272319555,0.0,1.0,56.0,21.0,0.021,0.6790162920951843,-0.4482010006904602,0.022517960518598557,0.002202342264354229,0.001399197499267757,0.0009346968727186322,0.17460797727108002,1.2790920734405518,-3.546154022216797,0.02344953827559948,0.006743200123310089,3.4132331165892538e-06,0.00018980246386490762,3.7002933025360107,10.0,0.0,0.0,0.0,0.0,0.0,0.28500000000000003,32.766,0.28,0.343,2.84,2018.274658203125,809.984130859375,28.624753952026367,,False,
1783703781.2182755,2026-07-10T10:16:21,212803,20260710_101616,,,,,,ground_idle,,,,,,,,,False,0.02295837178826332,0.002616202924400568,0.9990719556808472,-0.13321322202682495,-0.2735767662525177,0.1435764580965042,0.0,0.0,63.0,21.0,0.021,0.6790162920951843,-0.4482010006904602,0.022517960518598557,0.002202342264354229,0.001399197499267757,0.0009346968727186322,0.17460797727108002,1.2790920734405518,-3.546154022216797,0.02344953827559948,0.006743200123310089,3.4132331165892538e-06,0.00018980246386490762,3.7002933025360107,10.0,0.0,0.0,0.0,0.0,0.0,0.28500000000000003,32.766,0.28,0.343,2.84,2018.274658203125,809.984130859375,28.624753952026367,,False,
1783703781.2284775,2026-07-10T10:16:21,212818,20260710_101616,,,,,,ground_idle,,,,,,,,,False,0.02657475508749485,0.0044812895357608795,1.000809907913208,0.14047056436538696,0.20717456936836243,0.13417480885982513,0.0,0.0,64.0,21.0,0.021,0.6790591478347778,-0.4481736123561859,0.02253435179591179,0.002217809436842799,0.0013316782424226403,0.0007640353287570179,0.17219515144824982,1.2807735204696655,-3.537846803665161,0.02253435179591179,0.0007117956993170083,3.3150897706946125e-06,0.0001846431114245206,3.695014715194702,10.0,0.0,0.0,0.0,0.0,0.0,0.28500000000000003,32.766,0.28600000000000003,32.766,2.841,2018.274658203125,809.984130859375,28.624753952026367,,False,
1783703781.238669,2026-07-10T10:16:21,212823,20260710_101616,,,,,,ground_idle,,,,,,,,,False,0.024535804986953735,0.0038932503666728735,1.00044584274292,-0.08604250103235245,-0.17467209696769714,0.036778997629880905,0.0,0.0,63.0,21.0,0.021,0.6790591478347778,-0.4481736123561859,0.02253435179591179,0.002217809436842799,0.0013316782424226403,0.0007640353287570179,0.17219515144824982,1.2807735204696655,-3.537846803665161,0.02253435179591179,0.0007117956993170083,3.3150897706946125e-06,0.0001846431114245206,3.695014715194702,10.0,0.0,0.0,0.0,0.0,0.0,0.28500000000000003,32.766,0.28600000000000003,32.766,2.841,2018.274658203125,809.984130859375,28.624753952026367,,False,
1783703781.2488434,2026-07-10T10:16:21,212838,20260710_101616,,,,,,ground_idle,,,,,,,,,False,0.02444581873714924,0.002035025041550398,0.9983128309249878,-0.09603695571422577,0.1087687686085701,-0.3258042335510254,0.0,0.0,63.0,21.0,0.021,0.6791099309921265,-0.44814446568489075,0.02255145274102688,0.0027881325222551823,0.001518254866823554,0.0009067333885468543,0.17352254688739777,1.2769503593444824,-3.5286948680877686,0.02253435179591179,0.0007117956993170083,3.3150897706946125e-06,0.0001846431114245206,3.695014715194702,10.0,0.0,0.0,0.0,0.0,0.0,0.28500000000000003,32.766,0.28600000000000003,32.766,2.841,2018.274658203125,809.984130859375,28.624753952026367,,False,
1783703781.2590225,2026-07-10T10:16:21,212843,20260710_101616,,,,,,ground_idle,,,,,,,,,False,0.023755747824907303,0.002476421184837818,1.0007597208023071,0.18359211087226868,-0.0009619290940463543,0.09143322706222534,2.0,-3.0,67.0,22.0,0.022,0.6791099309921265,-0.44814446568489075,0.02255145274102688,0.0027881325222551823,0.001518254866823554,0.0009067333885468543,0.17352254688739777,1.2769503593444824,-3.5286948680877686,0.02253435179591179,0.0007117956993170083,3.3150897706946125e-06,0.0001846431114245206,3.695014715194702,10.0,0.0,0.0,0.0,0.0,0.0,0.28500000000000003,32.766,0.28600000000000003,32.766,2.841,2018.274658203125,809.984130859375,28.624753952026367,,False,
1783703781.2691948,2026-07-10T10:16:21,212859,20260710_101616,,,,,,ground_idle,,,,,,,,,False,0.026092451065778732,0.005140172783285379,0.9979420900344849,0.085206039249897,-0.3557739555835724,0.010639641433954239,-1.0,2.0,64.0,22.0,0.022,0.6794614791870117,-0.4485960006713867,0.022334402427077293,0.004205162636935711,-0.0007704232120886445,-0.00023042687098495662,0.1902596652507782,1.2658772468566895,-3.5200002193450928,0.022331226617097855,-0.0005044351564720273,3.413209697100683e-06,0.0001898099872050807,3.695014715194702,10.0,0.0,0.0,0.0,0.0,0.0,0.28500000000000003,32.766,0.28600000000000003,32.766,2.841,2018.274658203125,809.984130859375,28.624753952026367,,False,
1783703781.2793865,2026-07-10T10:16:21,212871,20260710_101616,,,,,,ground_idle,,,,,,,,,False,0.02215782180428505,0.0026453847531229258,1.0002906322479248,0.2057712823152542,0.023317132145166397,0.13697148859500885,0.0,-1.0,66.0,22.0,0.022,0.6794614791870117,-0.4485960006713867,0.022334402427077293,0.004205162636935711,-0.0007704232120886445,-0.00023042687098495662,0.1902596652507782,1.2658772468566895,-3.5200002193450928,0.022331226617097855,-0.0005044351564720273,3.413209697100683e-06,0.0001898099872050807,3.695014715194702,10.0,0.0,0.0,0.0,0.0,0.0,32.766,32.766,0.28600000000000003,32.766,2.841,2018.2255859375,809.9884033203125,28.639217376708984,,False,
1783703781.28954,2026-07-10T10:16:21,212881,20260710_101616,,,,,,ground_idle,,,,,,,,,False,0.02322995290160179,0.003721416462212801,1.0014667510986328,0.03978266566991806,-0.08438963443040848,0.047604192048311234,2.0,-1.0,73.0,22.0,0.022,0.6801438927650452,-0.44933661818504333,0.02232496812939644,0.0069898455403745174,-0.004191522020846605,-0.0004680356360040605,0.21373233199119568,1.2486090660095215,-3.510826349258423,0.022331226617097855,-0.0005044351564720273,3.413209697100683e-06,0.0001898099872050807,3.695014715194702,10.0,0.0,0.0,0.0,0.0,0.0,32.766,32.766,0.28600000000000003,32.766,2.841,2018.2255859375,809.9884033203125,28.639217376708984,,False,
1783703781.2996976,2026-07-10T10:16:21,212891,20260710_101616,,,,,,ground_idle,,,,,,,,,False,0.024735333397984505,0.002312656957656145,1.0001486539840698,0.0843287780880928,0.014052825048565865,0.14382536709308624,254.0,-1.0,73.0,22.0,0.022,0.6801438927650452,-0.44933661818504333,0.02232496812939644,0.0069898455403745174,-0.004191522020846605,-0.0004680356360040605,0.21373233199119568,1.2486090660095215,-3.510826349258423,0.022331226617097855,-0.0005044351564720273,3.413209697100683e-06,0.0001898099872050807,3.695014715194702,10.0,0.0,0.0,0.0,0.0,0.0,32.766,32.766,0.28600000000000003,32.766,2.841,2018.2255859375,809.9884033203125,28.639217376708984,,False,
1783703781.3098555,2026-07-10T10:16:21,212898,20260710_101616,,,,,,ground_idle,,,,,,,,,False,0.024735333397984505,0.002312656957656145,1.0001486539840698,0.0843287780880928,0.014052825048565865,0.14382536709308624,0.0,1.0,55.0,24.0,0.024,0.6785290837287903,-0.44855743646621704,0.0230446495115757,5.248955130809918e-05,-0.0002110391214955598,0.0035360155161470175,0.18784897029399872,1.2991501092910767,-3.5077338218688965,0.022331226617097855,-0.0005044351564720273,3.413209697100683e-06,0.0001898099872050807,3.695014715194702,10.0,0.0,0.0,0.0,0.0,0.0,32.766,32.766,0.28600000000000003,32.766,2.841,2018.2255859375,809.9884033203125,28.639217376708984,,False,
1783703781.320015,2026-07-10T10:16:21,212910,20260710_101616,,,,,,ground_idle,,,,,,,,,False,0.023516260087490082,0.0031489008106291294,1.0001357793807983,0.0770055502653122,0.25633862614631653,0.08625850081443787,0.0,-1.0,62.0,24.0,0.024,0.6785290837287903,-0.44855743646621704,0.0230446495115757,5.248955130809918e-05,-0.0002110391214955598,0.0035360155161470175,0.18784897029399872,1.2991501092910767,-3.5077338218688965,0.02311711385846138,0.0035627810284495354,3.3150722629216034e-06,0.00018463162996340543,3.695014715194702,10.0,0.0,0.0,0.0,0.0,0.0,32.766,32.766,0.28600000000000003,32.766,2.841,2018.2255859375,809.9884033203125,28.639217376708984,,False,
1783703781.3301823,2026-07-10T10:16:21,212921,20260710_101616,,,,,,ground_idle,,,,,,,,,False,0.023356597870588303,0.006483523175120354,1.0025864839553833,0.18619437515735626,-0.07441770285367966,-0.032037295401096344,0.0,-2.0,61.0,24.0,0.024,0.6795789003372192,-0.44858765602111816,0.023117853328585625,0.004634625278413296,-0.0005069925100542605,0.003612900385633111,0.18711160123348236,1.2624822854995728,-3.499091863632202,0.02311711385846138,0.0035627810284495354,3.3150722629216034e-06,0.00018463162996340543,3.695014715194702,10.0,0.0,0.0,0.0,0.0,0.0,32.766,0.318,0.28,32.766,2.842,2018.2255859375,809.9884033203125,28.639217376708984,,False,
1783703781.3404093,2026-07-10T10:16:21,212931,20260710_101616,,,,,,ground_idle,,,,,,,,,False,0.024691395461559296,0.004956078249961138,1.0010355710983276,0.10536631941795349,-0.30469435453414917,-0.15088783204555511,0.0,0.0,71.0,24.0,0.024,0.6795789003372192,-0.44858765602111816,0.023117853328585625,0.004634625278413296,-0.0005069925100542605,0.003612900385633111,0.18711160123348236,1.2624822854995728,-3.499091863632202,0.02311711385846138,0.0035627810284495354,3.3150722629216034e-06,0.00018463162996340543,3.695014715194702,10.0,0.0,0.0,0.0,0.0,0.0,32.766,0.318,0.28,32.766,2.842,2018.2255859375,809.9884033203125,28.639217376708984,,False,
1783703781.350585,2026-07-10T10:16:21,212941,20260710_101616,,,,,,ground_idle,,,,,,,,,False,0.023537350818514824,0.004057286307215691,1.0008188486099243,-0.01352668832987547,-0.2816392481327057,-0.17607837915420532,0.0,0.0,71.0,24.0,0.024,0.6802868247032166,-0.44861993193626404,0.023191407322883606,0.007455687969923019,-0.00028929964173585176,0.003992138430476189,0.18724672496318817,1.2426029443740845,-3.491508960723877,0.02311711385846138,0.0035627810284495354,3.3150722629216034e-06,0.00018463162996340543,3.695014715194702,10.0,0.0,0.0,0.0,0.0,0.0,32.766,0.318,0.28,32.766,2.842,2018.2255859375,809.9884033203125,28.639217376708984,,False,
1783703781.3607516,2026-07-10T10:16:21,212951,20260710_101616,,,,,,ground_idle,,,,,,,,,False,0.025046473369002342,0.003206447698175907,0.9989766478538513,0.1369493007659912,-0.00026045404956676066,-0.11667148023843765,0.0,3.0,69.0,22.0,0.022,0.6802868247032166,-0.44861993193626404,0.023191407322883606,0.007455687969923019,-0.00028929964173585176,0.003992138430476189,0.18724672496318817,1.2426029443740845,-3.491508960723877,0.02311711385846138,0.0035627810284495354,3.3150722629216034e-06,0.00018463162996340543,3.695014715194702,10.0,0.0,0.0,0.0,0.0,0.0,32.766,0.318,0.28,32.766,2.842,2018.2255859375,809.9884033203125,28.639217376708984,,False,
1783703781.3709297,2026-07-10T10:16:21,212961,20260710_101616,,,,,,ground_idle,,,,,,,,,False,0.025046473369002342,0.003206447698175907,0.9989766478538513,0.1369493007659912,-0.00026045404956676066,-0.11667148023843765,0.0,3.0,69.0,22.0,0.022,0.6795205473899841,-0.44860392808914185,0.022758107632398605,0.004179290030151606,6.803139694966376e-05,0.0017155621899291873,0.18711857497692108,1.273677945137024,-3.487365245819092,0.022774845361709595,0.0015325285494327545,3.4132149266952183e-06,0.0001897964539239183,3.7002933025360107,10.0,0.0,0.0,0.0,0.0,0.0,32.766,0.318,0.28,32.766,2.842,2018.2255859375,809.9884033203125,28.639217376708984,,False,
1783703781.3810904,2026-07-10T10:16:21,212971,20260710_101616,,,,,,ground_idle,,,,,,,,,False,0.02241952158510685,0.0015948860673233867,1.0011602640151978,0.23940828442573547,0.32925528287887573,0.02371160127222538,0.0,2.0,70.0,22.0,0.022,0.6795205473899841,-0.44860392808914185,0.022758107632398605,0.004179290030151606,6.803139694966376e-05,0.0017155621899291873,0.18711857497692108,1.273677945137024,-3.487365245819092,0.022774845361709595,0.0015325285494327545,3.4132149266952183e-06,0.0001897964539239183,3.7002933025360107,10.0,0.0,0.0,0.0,0.0,0.0,32.766,0.318,0.28,32.766,2.842,2018.1217041015625,809.9978637695312,28.647876739501953,,False,
1783703781.3912497,2026-07-10T10:16:21,212981,20260710_101616,,,,,,ground_idle,,,,,,,,,False,0.02497873269021511,0.003030536463484168,1.000564455986023,-0.0327732227742672,-0.3358851671218872,0.017625777050852776,0.0,2.0,70.0,22.0,0.022,0.6791581511497498,-0.44859883189201355,0.02279309742152691,0.0026173251681029797,0.00012294900079723448,0.001637463690713048,0.18742363154888153,1.2837358713150024,-3.478804111480713,0.022774845361709595,0.0015325285494327545,3.4132149266952183e-06,0.0001897964539239183,3.7002933025360107,10.0,0.0,0.0,0.0,0.0,0.0,32.766,0.318,0.28,32.766,2.842,2018.1217041015625,809.9978637695312,28.647876739501953,,False,
1783703781.4015765,2026-07-10T10:16:21,212991,20260710_101616,,,,,,ground_idle,,,,,,,,,False,0.02592882327735424,0.0021061107981950045,1.0010392665863037,0.2532191872596741,0.235063835978508,-0.14734941720962524,0.0,-1.0,73.0,22.0,0.022,0.6791581511497498,-0.44859883189201355,0.02279309742152691,0.0026173251681029797,0.00012294900079723448,0.001637463690713048,0.18742363154888153,1.2837358713150024,-3.478804111480713,0.022774845361709595,0.0015325285494327545,3.4132149266952183e-06,0.0001897964539239183,3.7002933025360107,10.0,0.0,0.0,0.0,0.0,0.0,32.766,0.318,0.28,32.766,2.842,2018.1217041015625,809.9978637695312,28.647876739501953,,False,
1783703781.411733,2026-07-10T10:16:21,213003,20260710_101616,,,,,,ground_idle,,,,,,,,,False,0.023816777393221855,0.00272950972430408,1.0017765760421753,-0.06418994069099426,0.05921756476163864,0.032826922833919525,0.0,-2.0,71.0,21.0,0.021,0.678555965423584,-0.44857871532440186,0.02204434759914875,4.48999235231895e-05,6.367463356582448e-05,-0.002276852261275053,0.18702396750450134,1.3041198253631592,-3.4728658199310303,0.022774845361709595,0.0015325285494327545,3.4132149266952183e-06,0.0001897964539239183,3.7002933025360107,10.0,0.0,0.0,0.0,0.0,0.0,32.766,0.318,0.28,32.766,2.842,2018.1217041015625,809.9978637695312,28.647876739501953,,False,
1783703781.424058,2026-07-10T10:16:21,213013,20260710_101616,,,,,,ground_idle,,,,,,,,,False,0.022333569824695587,0.0027840191032737494,1.000421166419983,0.012020912952721119,0.2727741599082947,-0.21567508578300476,0.0,0.0,66.0,21.0,0.021,0.678555965423584,-0.44857871532440186,0.02204434759914875,4.48999235231895e-05,6.367463356582448e-05,-0.002276852261275053,0.18702396750450134,1.3041198253631592,-3.4728658199310303,0.022003980353474617,-0.001975464168936014,3.315073627163656e-06,0.00018462896696291864,3.695014715194702,10.0,0.0,0.0,0.0,0.0,0.0,32.766,32.766,0.279,0.343,2.835,2018.1217041015625,809.9978637695312,28.647876739501953,,False,
1783703781.434348,2026-07-10T10:16:21,213023,20260710_101616,,,,,,ground_idle,,,,,,,,,False,0.022211283445358276,0.003870520507916808,0.9978458881378174,0.1108965203166008,-0.055269163101911545,0.015775451436638832,0.0,0.0,72.0,21.0,0.021,0.679209291934967,-0.4486016631126404,0.022003980353474617,0.0031692178454250097,-0.00028886835207231343,-0.0019053748110309243,0.18789564073085785,1.2769486904144287,-3.465998411178589,0.022003980353474617,-0.001975464168936014,3.315073627163656e-06,0.00018462896696291864,3.695014715194702,10.0,0.0,0.0,0.0,0.0,0.0,32.766,32.766,0.279,0.343,2.835,2018.1217041015625,809.9978637695312,28.647876739501953,,False,
1783703781.444529,2026-07-10T10:16:21,213035,20260710_101616,,,,,,ground_idle,,,,,,,,,False,0.026018613949418068,0.0034246081486344337,0.9996529221534729,-0.057001832872629166,0.1712459772825241,0.2343302220106125,0.0,0.0,72.0,21.0,0.021,0.6792727708816528,-0.44860756397247314,0.021965360268950462,0.003208621870726347,-0.00026210537180304527,-0.002017834922298789,0.18789564073085785,1.2769486904144287,-3.465998411178589,0.022003980353474617,-0.001975464168936014,3.315073627163656e-06,0.00018462896696291864,3.695014715194702,10.0,0.0,0.0,0.0,0.0,0.0,32.766,32.766,0.279,0.343,2.835,2018.1217041015625,809.9978637695312,28.647876739501953,,False,
1783703781.4547224,2026-07-10T10:16:21,213043,20260710_101616,,,,,,ground_idle,,,,,,,,,False,0.023823654279112816,0.004868622869253159,1.0014619827270508,0.041108425706624985,-0.22619633376598358,-0.001303655793890357,0.0,0.0,56.0,23.0,0.023,0.6792727708816528,-0.44860756397247314,0.021965360268950462,0.003208621870726347,-0.00026210537180304527,-0.002017834922298789,0.18854178488254547,1.272674798965454,-3.4593966007232666,0.022003980353474617,-0.001975464168936014,3.315073627163656e-06,0.00018462896696291864,3.695014715194702,10.0,0.0,0.0,0.0,0.0,0.0,32.766,32.766,0.279,0.343,2.835,2018.1217041015625,809.9978637695312,28.647876739501953,,False,
1783703781.464897,2026-07-10T10:16:21,213055,20260710_101616,,,,,,ground_idle,,,,,,,,,False,0.022976530715823174,0.004634307697415352,1.0009855031967163,-0.016470707952976227,0.0583685040473938,-0.1791299432516098,0.0,0.0,56.0,23.0,0.023,0.6793343424797058,-0.44861289858818054,0.0223781056702137,0.003675171872600913,-0.00012290111044421792,0.0002736609021667391,0.18854178488254547,1.272674798965454,-3.4593966007232666,0.022003980353474617,-0.001975464168936014,3.315073627163656e-06,0.00018462896696291864,3.695014715194702,10.0,0.0,0.0,0.0,0.0,0.0,32.766,32.766,0.279,0.343,2.835,2018.1217041015625,809.9978637695312,28.647876739501953,,False,
1783703781.4750721,2026-07-10T10:16:21,213063,20260710_101616,,,,,,ground_idle,,,,,,,,,False,0.022225916385650635,0.0026409337297081947,0.9996944665908813,-0.09488389641046524,0.03733762726187706,-0.0943736806511879,0.0,-1.0,66.0,23.0,0.023,0.6793343424797058,-0.44861289858818054,0.0223781056702137,0.003675171872600913,-0.00012290111044421792,0.0002736609021667391,0.18687869608402252,1.2706254720687866,-3.452314615249634,0.022381508722901344,0.0003237144264858216,3.413229705984122e-06,0.0001898102054838091,3.7002933025360107,10.0,0.0,0.0,0.0,0.0,0.0,32.766,32.766,0.279,0.343,2.835,2018.2200927734375,809.9888305664062,28.657085418701172,,False,
1783703781.4852426,2026-07-10T10:16:21,213075,20260710_101616,,,,,,ground_idle,,,,,,,,,False,0.022706378251314163,0.002787201199680567,0.9994138479232788,0.005491617601364851,0.10695356130599976,0.10598500072956085,0.0,-1.0,66.0,23.0,0.023,0.679724395275116,-0.44862934947013855,0.02238507568836212,0.005114937201142311,-0.0001478579215472564,0.000403006182750687,0.18687869608402252,1.2706254720687866,-3.452314615249634,0.022381508722901344,0.0003237144264858216,3.413229705984122e-06,0.0001898102054838091,3.7002933025360107,10.0,0.0,0.0,0.0,0.0,0.0,32.766,32.766,0.279,0.343,2.835,2018.2200927734375,809.9888305664062,28.657085418701172,,False,
1783703781.495593,2026-07-10T10:16:21,213083,20260710_101616,,,,,,ground_idle,,,,,,,,,False,0.02413037046790123,0.004793825559318066,1.0020705461502075,0.27888038754463196,-0.12219638377428055,0.06905180960893631,0.0,0.0,67.0,23.0,0.023,0.679724395275116,-0.44862934947013855,0.02238507568836212,0.005114937201142311,-0.0001478579215472564,0.000403006182750687,0.18731747567653656,1.2546207904815674,-3.4458351135253906,0.022381508722901344,0.0003237144264858216,3.413229705984122e-06,0.0001898102054838091,3.7002933025360107,10.0,0.0,0.0,0.0,0.0,0.0,32.766,32.766,0.279,0.343,2.835,2018.2200927734375,809.9888305664062,28.657085418701172,,False,
1783703781.505767,2026-07-10T10:16:21,213095,20260710_101616,,,,,,ground_idle,,,,,,,,,False,0.02395842783153057,0.004354304168373346,1.0001002550125122,0.011508645489811897,-0.15920791029930115,0.1895773559808731,0.0,-1.0,55.0,25.0,0.025,0.6788958311080933,-0.4486125409603119,0.023514913395047188,0.001483804895542562,0.0001322438765782863,0.006488798651844263,0.18731747567653656,1.2546207904815674,-3.4458351135253906,0.022381508722901344,0.0003237144264858216,3.413229705984122e-06,0.0001898102054838091,3.7002933025360107,10.0,0.0,0.0,0.0,0.0,0.0,32.766,32.766,0.279,0.343,2.835,2018.2200927734375,809.9888305664062,28.657085418701172,,False,
1783703781.5159428,2026-07-10T10:16:21,213103,20260710_101616,,,,,,ground_idle,,,,,,,,,False,0.02240777760744095,0.004009514581412077,0.9995725154876709,0.16955465078353882,-0.08066462725400925,-0.10612840205430984,1.0,-4.0,74.0,25.0,0.025,0.6788958311080933,-0.4486125409603119,0.023514913395047188,0.001483804895542562,0.0001322438765782863,0.006488798651844263,0.18720434606075287,1.2801356315612793,-3.440000295639038,0.022381508722901344,0.0003237144264858216,3.413229705984122e-06,0.0001898102054838091,3.7002933025360107,10.0,0.0,0.0,0.0,0.0,0.0,32.766,32.766,0.279,0.343,2.835,2018.2200927734375,809.9888305664062,28.657085418701172,,False,
1783703781.5261178,2026-07-10T10:16:21,213115,20260710_101616,,,,,,ground_idle,,,,,,,,,False,0.023975737392902374,0.0020274054259061813,1.0003066062927246,0.04927755519747734,0.05585537850856781,0.243587926030159,-1.0,3.0,67.0,25.0,0.025,0.6792149543762207,-0.44864001870155334,0.02365359477698803,0.0027023330330848694,0.00014263771299738437,0.006553288083523512,0.18720434606075287,1.2801356315612793,-3.440000295639038,0.023645784705877304,0.006356442347168922,3.315109097457025e-06,0.00018463568994775414,3.695014715194702,10.0,0.0,0.0,0.0,0.0,0.0,32.766,32.766,0.279,0.34,2.848,2018.2200927734375,809.9888305664062,28.657085418701172,,False,
1783703781.5363083,2026-07-10T10:16:21,213123,20260710_101616,,,,,,ground_idle,,,,,,,,,False,0.022640615701675415,0.003109941491857171,1.000167727470398,0.017829176038503647,-0.05830647423863411,-0.01816479116678238,1.0,-3.0,70.0,25.0,0.025,0.6792149543762207,-0.44864001870155334,0.02365359477698803,0.0027023330330848694,0.00014263771299738437,0.006553288083523512,0.18788555264472961,1.270712971687317,-3.4326798915863037,0.023645784705877304,0.006356442347168922,3.315109097457025e-06,0.00018463568994775414,3.695014715194702,10.0,0.0,0.0,0.0,0.0,0.0,32.766,32.766,0.279,0.34,2.848,2018.2200927734375,809.9888305664062,28.657085418701172,,False,
1783703781.5466158,2026-07-10T10:16:21,213138,20260710_101616,,,,,,ground_idle,,,,,,,,,False,0.02301783114671707,0.004102929960936308,0.99934983253479,0.05399272218346596,0.1509970873594284,0.0633181780576706,-1.0,-3.0,70.0,25.0,0.025,0.6795123219490051,-0.4486628472805023,0.023790569975972176,0.0038044832181185484,-6.930600648047403e-05,0.006640749983489513,0.18857255578041077,1.2612375020980835,-3.4245986938476562,0.023645784705877304,0.006356442347168922,3.315109097457025e-06,0.00018463568994775414,3.695014715194702,10.0,0.0,0.0,0.0,0.0,0.0,32.766,32.766,0.279,0.34,2.848,2018.2200927734375,809.9888305664062,28.657085418701172,,False,
1783703781.5567994,2026-07-10T10:16:21,213143,20260710_101616,,,,,,ground_idle,,,,,,,,,False,0.02162241004407406,0.004146235063672066,1.000144124031067,0.022590255364775658,0.10230203717947006,-0.18253512680530548,0.0,3.0,60.0,21.0,0.021,0.6795123219490051,-0.4486628472805023,0.023790569975972176,0.0038044832181185484,-6.930600648047403e-05,0.006640749983489513,0.18857255578041077,1.2612375020980835,-3.4245986938476562,0.023645784705877304,0.006356442347168922,3.315109097457025e-06,0.00018463568994775414,3.695014715194702,10.0,0.0,0.0,0.0,0.0,0.0,32.766,32.766,0.279,0.34,2.848,2018.2200927734375,809.9888305664062,28.657085418701172,,False,
1783703781.566985,2026-07-10T10:16:21,213158,20260710_101616,,,,,,ground_idle,,,,,,,,,False,0.022064493969082832,0.004923074506223202,0.9988361597061157,0.0808224081993103,-0.0363994836807251,-0.10005521029233932,0.0,3.0,60.0,21.0,0.021,0.6788862943649292,-0.44863924384117126,0.02270572818815708,0.0008897027000784874,0.00025642142281867564,0.0008724585059098899,0.18915922939777374,1.2771152257919312,-3.418501138687134,0.023645784705877304,0.006356442347168922,3.315109097457025e-06,0.00018463568994775414,3.695014715194702,10.0,0.0,0.0,0.0,0.0,0.0,32.766,32.766,0.279,0.34,2.848,2018.2200927734375,809.9888305664062,28.657085418701172,,False,
1783703781.5771604,2026-07-10T10:16:21,213163,20260710_101616,,,,,,ground_idle,,,,,,,,,False,0.022418269887566566,0.0028849192894995213,0.9987169504165649,-0.11188653856515884,0.02993442490696907,0.19190314412117004,1.0,-4.0,67.0,21.0,0.021,0.6788862943649292,-0.44863924384117126,0.02270572818815708,0.0008897027000784874,0.00025642142281867564,0.0008724585059098899,0.18915922939777374,1.2771152257919312,-3.418501138687134,0.022714195773005486,0.0008010095334611833,3.4132094697270077e-06,0.0001897943002404645,3.7002933025360107,10.0,0.0,0.0,0.0,0.0,0.0,32.766,32.766,0.279,0.34,2.848,2018.23095703125,809.988037109375,28.665908813476562,,False,
1783703781.5874703,2026-07-10T10:16:21,213178,20260710_101616,,,,,,ground_idle,,,,,,,,,False,0.023356840014457703,0.0019737593829631805,0.9979664087295532,0.051915813237428665,-0.09209144860506058,-0.03515562042593956,-1.0,-4.0,67.0,21.0,0.021,0.6794601678848267,-0.44866567850112915,0.022729139775037766,0.00319336517713964,0.00015270318544935435,0.0007576398784294724,0.18951846659183502,1.2559096813201904,-3.4100470542907715,0.022714195773005486,0.0008010095334611833,3.4132094697270077e-06,0.0001897943002404645,3.7002933025360107,10.0,0.0,0.0,0.0,0.0,0.0,32.766,32.766,0.279,0.34,2.848,2018.23095703125,809.988037109375,28.665908813476562,,False,
1783703781.5976474,2026-07-10T10:16:21,213183,20260710_101616,,,,,,ground_idle,,,,,,,,,False,0.023248719051480293,0.006374974735081196,0.9995622038841248,-0.10077659040689468,0.25052928924560547,0.035451989620923996,-256.0,2.0,61.0,21.0,0.021,0.6794601678848267,-0.44866567850112915,0.022729139775037766,0.00319336517713964,0.00015270318544935435,0.0007576398784294724,0.18951846659183502,1.2559096813201904,-3.4100470542907715,0.022714195773005486,0.0008010095334611833,3.4132094697270077e-06,0.0001897943002404645,3.7002933025360107,10.0,0.0,0.0,0.0,0.0,0.0,32.766,32.766,0.279,0.34,2.848,2018.23095703125,809.988037109375,28.665908813476562,,False,
1783703781.6078255,2026-07-10T10:16:21,213198,20260710_101616,,,,,,ground_idle,,,,,,,,,False,0.023755019530653954,0.004007059149444103,0.999113917350769,0.09148543328046799,-0.033587146550416946,-0.01753438077867031,0.0,2.0,59.0,26.0,0.026,0.6785849928855896,-0.4486362338066101,0.02413872256875038,-0.0007890780689194798,0.0005360200884751976,0.007875669747591019,0.19027051329612732,1.2826170921325684,-3.4037649631500244,0.022714195773005486,0.0008010095334611833,3.4132094697270077e-06,0.0001897943002404645,3.7002933025360107,10.0,0.0,0.0,0.0,0.0,0.0,32.766,32.766,0.279,0.34,2.848,2018.23095703125,809.988037109375,28.665908813476562,,False,
1783703781.618033,2026-07-10T10:16:21,213203,20260710_101616,,,,,,ground_idle,,,,,,,,,False,0.02307928539812565,0.003526402171701193,0.9980989098548889,0.007440343964844942,-0.12891796231269836,-0.1602058857679367,0.0,-2.0,73.0,26.0,0.026,0.6785849928855896,-0.4486362338066101,0.02413872256875038,-0.0007890780689194798,0.0005360200884751976,0.007875669747591019,0.19027051329612732,1.2826170921325684,-3.4037649631500244,0.022714195773005486,0.0008010095334611833,3.4132094697270077e-06,0.0001897943002404645,3.7002933025360107,10.0,0.0,0.0,0.0,0.0,0.0,32.766,32.766,0.279,0.34,2.848,2018.23095703125,809.988037109375,28.665908813476562,,False,
1783703781.6282086,2026-07-10T10:16:21,213218,20260710_101616,,,,,,ground_idle,,,,,,,,,False,0.022836050018668175,0.004166207741945982,1.0006343126296997,0.007987525314092636,-0.49112075567245483,0.19500012695789337,0.0,0.0,62.0,26.0,0.026,0.6791512370109558,-0.4486549198627472,0.024296607822179794,0.0020152279175817966,0.0004199488612357527,0.007713546510785818,0.19113954901695251,1.2583765983581543,-3.396991729736328,0.024296607822179794,0.007666229736059904,3.315094090794446e-06,0.00018462375737726688,3.695014715194702,10.0,0.0,0.0,0.0,0.0,0.0,32.766,32.766,0.28,0.342,2.839,2018.23095703125,809.988037109375,28.665908813476562,,False,
1783703781.6385095,2026-07-10T10:16:21,213223,20260710_101616,,,,,,ground_idle,,,,,,,,,False,0.02275054343044758,0.00197093584574759,1.001009225845337,-0.19532762467861176,0.17408186197280884,-0.031061790883541107,1.0,-3.0,65.0,26.0,0.026,0.6791512370109558,-0.4486549198627472,0.024296607822179794,0.0020152279175817966,0.0004199488612357527,0.007713546510785818,0.19113954901695251,1.2583765983581543,-3.396991729736328,0.024296607822179794,0.007666229736059904,3.315094090794446e-06,0.00018462375737726688,3.695014715194702,10.0,0.0,0.0,0.0,0.0,0.0,32.766,32.766,0.28,0.342,2.839,2018.23095703125,809.988037109375,28.665908813476562,,False,
1783703781.6486862,2026-07-10T10:16:21,213238,20260710_101616,,,,,,ground_idle,,,,,,,,,False,0.02339940145611763,0.0038351237308233976,1.0023266077041626,0.004704415798187256,-0.07642412930727005,-0.06641257554292679,-1.0,-3.0,65.0,26.0,0.026,0.678871750831604,-0.4486474394798279,0.02446172945201397,0.0005084655131213367,0.0004002564528491348,0.007974044419825077,0.1903434544801712,1.2673319578170776,-3.3905346393585205,0.024296607822179794,0.007666229736059904,3.315094090794446e-06,0.00018462375737726688,3.695014715194702,10.0,0.0,0.0,0.0,0.0,0.0,32.766,32.766,0.28,0.342,2.839,2018.23095703125,809.988037109375,28.665908813476562,,False,
1783703781.6588671,2026-07-10T10:16:21,213243,20260710_101616,,,,,,ground_idle,,,,,,,,,False,0.025192147120833397,0.0033970887307077646,1.0000841617584229,-0.05495496094226837,0.15172719955444336,-0.003802376566454768,0.0,0.0,56.0,23.0,0.023,0.678871750831604,-0.4486474394798279,0.02446172945201397,0.0005084655131213367,0.0004002564528491348,0.007974044419825077,0.1903434544801712,1.2673319578170776,-3.3905346393585205,0.024296607822179794,0.007666229736059904,3.315094090794446e-06,0.00018462375737726688,3.695014715194702,10.0,0.0,0.0,0.0,0.0,0.0,32.766,32.766,0.28,0.342,2.839,2018.23095703125,809.988037109375,28.665908813476562,,False,
1783703781.6690521,2026-07-10T10:16:21,213259,20260710_101616,,,,,,ground_idle,,,,,,,,,False,0.02580402046442032,0.004631943069398403,0.9983876347541809,0.03844138979911804,0.03801307454705238,-0.048110231757164,0.0,0.0,56.0,23.0,0.023,0.6791664958000183,-0.4486570358276367,0.023985806852579117,0.002292910125106573,0.0003108057426288724,0.005157602019608021,0.18854574859142303,1.2559587955474854,-3.3845462799072266,0.024036947637796402,0.005011039320379496,3.4132328892155783e-06,0.00018979361630044878,3.695014715194702,10.0,0.0,0.0,0.0,0.0,0.0,32.766,32.766,0.28,0.342,2.839,2018.23095703125,809.988037109375,28.665908813476562,,False,
1783703781.6792257,2026-07-10T10:16:21,213263,20260710_101616,,,,,,ground_idle,,,,,,,,,False,0.02212141640484333,0.00484923692420125,1.0016424655914307,0.16862262785434723,0.032296787947416306,0.18842068314552307,0.0,0.0,62.0,23.0,0.023,0.6791664958000183,-0.4486570358276367,0.023985806852579117,0.002292910125106573,0.0003108057426288724,0.005157602019608021,0.18854574859142303,1.2559587955474854,-3.3845462799072266,0.024036947637796402,0.005011039320379496,3.4132328892155783e-06,0.00018979361630044878,3.7002933025360107,10.0,0.0,0.0,0.0,0.0,0.0,32.766,32.766,0.28,0.342,2.839,2018.2091064453125,809.98974609375,28.675996780395508,,False,
1783703781.6895108,2026-07-10T10:16:21,213278,20260710_101616,,,,,,ground_idle,,,,,,,,,False,0.021968485787510872,0.0038090371526777744,1.0024051666259766,-0.1960429549217224,-0.14544107019901276,0.011935938149690628,0.0,0.0,62.0,23.0,0.023,0.6794639825820923,-0.4486636519432068,0.02408854477107525,0.00375633267685771,0.0004744280595332384,0.005291714798659086,0.18765932321548462,1.2436085939407349,-3.375098943710327,0.024036947637796402,0.005011039320379496,3.4132328892155783e-06,0.00018979361630044878,3.7002933025360107,10.0,0.0,0.0,0.0,0.0,0.0,32.766,32.766,0.28,0.342,2.839,2018.2091064453125,809.98974609375,28.675996780395508,,False,
1783703781.6997437,2026-07-10T10:16:21,213283,20260710_101616,,,,,,ground_idle,,,,,,,,,False,0.02244100347161293,0.004932542331516743,1.0013737678527832,0.06065719202160835,-0.33958467841148376,0.12057477980852127,0.0,-1.0,70.0,23.0,0.023,0.6794639825820923,-0.4486636519432068,0.02408854477107525,0.00375633267685771,0.0004744280595332384,0.005291714798659086,0.18765932321548462,1.2436085939407349,-3.375098943710327,0.024036947637796402,0.005011039320379496,3.4132328892155783e-06,0.00018979361630044878,3.7002933025360107,10.0,0.0,0.0,0.0,0.0,0.0,32.766,32.766,0.28,0.342,2.839,2018.2091064453125,809.98974609375,28.675996780395508,,False,
1783703781.709926,2026-07-10T10:16:21,213301,20260710_101616,,,,,,ground_idle,,,,,,,,,False,0.024485895410180092,0.0037609932478517294,0.9970273375511169,-0.17978425323963165,-0.027690043672919273,-0.17196911573410034,0.0,0.0,55.0,20.0,0.02,0.6789337396621704,-0.44863152503967285,0.022399578243494034,0.0010671173222362995,0.000826213217806071,-0.0037692307960242033,0.18584752082824707,1.2662721872329712,-3.367626667022705,0.024036947637796402,0.005011039320379496,3.4132328892155783e-06,0.00018979361630044878,3.7002933025360107,10.0,0.0,0.0,0.0,0.0,0.0,32.766,32.766,0.28,0.342,2.839,2018.2091064453125,809.98974609375,28.675996780395508,,False,
1783703781.7201068,2026-07-10T10:16:21,213310,20260710_101616,,,,,,ground_idle,,,,,,,,,False,0.024485895410180092,0.0037609932478517294,0.9970273375511169,-0.17978425323963165,-0.027690043672919273,-0.17196911573410034,1.0,-3.0,72.0,20.0,0.02,0.6789337396621704,-0.44863152503967285,0.022399578243494034,0.0010671173222362995,0.000826213217806071,-0.0037692307960242033,0.18584752082824707,1.2662721872329712,-3.367626667022705,0.02232464589178562,-0.004048159345984459,3.3150849958474282e-06,0.00018462665320839733,3.695014715194702,10.0,0.0,0.0,0.0,0.0,0.0,32.766,32.766,0.28,0.342,2.839,2018.2091064453125,809.98974609375,28.675996780395508,,False,
1783703781.7302756,2026-07-10T10:16:21,213321,20260710_101616,,,,,,ground_idle,,,,,,,,,False,0.02565300092101097,0.003954380750656128,1.002159595489502,-0.017229143530130386,0.024495605379343033,0.12146761268377304,0.0,-1.0,64.0,20.0,0.02,0.6800223588943481,-0.44892561435699463,0.02232377603650093,0.006348208524286747,-0.0007549200672656298,-0.003936633467674255,0.19731169939041138,1.2267652750015259,-3.3601555824279785,0.02232464589178562,-0.004048159345984459,3.3150849958474282e-06,0.00018462665320839733,3.695014715194702,10.0,0.0,0.0,0.0,0.0,0.0,32.766,32.766,0.28,32.766,2.848,2018.2091064453125,809.98974609375,28.675996780395508,,False,
1783703781.7405329,2026-07-10T10:16:21,213323,20260710_101616,,,,,,ground_idle,,,,,,,,,False,0.02565300092101097,0.003954380750656128,1.002159595489502,-0.017229143530130386,0.024495605379343033,0.12146761268377304,-1.0,2.0,62.0,20.0,0.02,0.6800223588943481,-0.44892561435699463,0.02232377603650093,0.006348208524286747,-0.0007549200672656298,-0.003936633467674255,0.19731169939041138,1.2267652750015259,-3.3601555824279785,0.02232464589178562,-0.004048159345984459,3.3150849958474282e-06,0.00018462665320839733,3.695014715194702,10.0,0.0,0.0,0.0,0.0,0.0,32.766,32.766,0.28,32.766,2.848,2018.2091064453125,809.98974609375,28.675996780395508,,False,
1783703781.7506993,2026-07-10T10:16:21,213341,20260710_101616,,,,,,ground_idle,,,,,,,,,False,0.02296394854784012,0.003613482927903533,1.000400424003601,-0.022542720660567284,-0.3935295343399048,-0.09447307884693146,0.0,2.0,62.0,20.0,0.02,0.6791870594024658,-0.44865697622299194,0.02225400134921074,0.0024451962672173977,0.0008151097572408617,-0.003548822831362486,0.18637540936470032,1.2600154876708984,-3.353670358657837,0.02232464589178562,-0.004048159345984459,3.3150849958474282e-06,0.00018462665320839733,3.695014715194702,10.0,0.0,0.0,0.0,0.0,0.0,32.766,32.766,0.28,32.766,2.848,2018.2091064453125,809.98974609375,28.675996780395508,,False,
1783703781.7608824,2026-07-10T10:16:21,213351,20260710_101616,,,,,,ground_idle,,,,,,,,,False,0.024026336148381233,0.0034958834294229746,1.000449299812317,-0.05829272419214249,0.11877181380987167,0.17184174060821533,0.0,1.0,61.0,22.0,0.022,0.6791870594024658,-0.44865697622299194,0.02225400134921074,0.0024451962672173977,0.0008151097572408617,-0.003548822831362486,0.18637540936470032,1.2600154876708984,-3.353670358657837,0.02232464589178562,-0.004048159345984459,3.3150849958474282e-06,0.00018462665320839733,3.695014715194702,10.0,0.0,0.0,0.0,0.0,0.0,32.766,32.766,0.28,32.766,2.848,2018.2091064453125,809.98974609375,28.675996780395508,,False,
1783703781.7710533,2026-07-10T10:16:21,213361,20260710_101616,,,,,,ground_idle,,,,,,,,,False,0.024026336148381233,0.0034958834294229746,1.000449299812317,-0.05829272419214249,0.11877181380987167,0.17184174060821533,0.0,1.0,61.0,22.0,0.022,0.6791675686836243,-0.4486536979675293,0.022074313834309578,0.0023863334208726883,0.0007899077609181404,-0.003917685244232416,0.18767167627811432,1.2613898515701294,-3.3478872776031494,0.022035546600818634,-0.003894309513270855,3.4132217479054816e-06,0.00018979025480803102,3.695014715194702,10.0,0.0,0.0,0.0,0.0,0.0,32.766,32.766,0.28,32.766,2.848,2018.2091064453125,809.98974609375,28.675996780395508,,False,
1783703781.7812195,2026-07-10T10:16:21,213371,20260710_101616,,,,,,ground_idle,,,,,,,,,False,0.023622622713446617,0.004446536302566528,1.0001102685928345,-0.13055278360843658,0.03768555447459221,0.09555850178003311,0.0,0.0,68.0,22.0,0.022,0.6791675686836243,-0.4486536979675293,0.022074313834309578,0.0023863334208726883,0.0007899077609181404,-0.003917685244232416,0.18767167627811432,1.2613898515701294,-3.3478872776031494,0.022035546600818634,-0.003894309513270855,3.4132217479054816e-06,0.00018979025480803102,3.695014715194702,10.0,0.0,0.0,0.0,0.0,0.0,32.766,32.766,0.28,32.766,2.848,2018.236572265625,809.9873046875,28.685626983642578,,False,
1783703781.7914937,2026-07-10T10:16:21,213383,20260710_101616,,,,,,ground_idle,,,,,,,,,False,0.022378811612725258,0.004045762587338686,1.002122163772583,-0.006543272640556097,0.019340598955750465,-0.05007173866033554,255.0,-3.0,74.0,22.0,0.022,0.6799704432487488,-0.44890812039375305,0.02199755236506462,0.006561219226568937,-0.0006759528769180179,-0.0037122240755707026,0.19542166590690613,1.2315057516098022,-3.338981866836548,0.022035546600818634,-0.003894309513270855,3.4132217479054816e-06,0.00018979025480803102,3.695014715194702,10.0,0.0,0.0,0.0,0.0,0.0,32.766,32.766,0.28,32.766,2.848,2018.236572265625,809.9873046875,28.685626983642578,,False,
1783703781.8016655,2026-07-10T10:16:21,213393,20260710_101616,,,,,,ground_idle,,,,,,,,,False,0.022722700610756874,0.0030838102102279663,1.001568078994751,-0.1295352578163147,0.15090599656105042,0.05094293877482414,0.0,2.0,59.0,23.0,0.023,0.6799704432487488,-0.44890812039375305,0.02199755236506462,0.006561219226568937,-0.0006759528769180179,-0.0037122240755707026,0.19542166590690613,1.2315057516098022,-3.338981866836548,0.022035546600818634,-0.003894309513270855,3.4132217479054816e-06,0.00018979025480803102,3.695014715194702,10.0,0.0,0.0,0.0,0.0,0.0,32.766,32.766,0.28,32.766,2.848,2018.236572265625,809.9873046875,28.685626983642578,,False,
1783703781.8118315,2026-07-10T10:16:21,213403,20260710_101616,,,,,,ground_idle,,,,,,,,,False,0.023127906024456024,0.0026594584342092276,1.0022417306900024,-0.18302017450332642,-0.01268511638045311,-0.09605341404676437,0.0,-1.0,69.0,23.0,0.023,0.6784201264381409,-0.44862017035484314,0.022391030564904213,-0.0012943175388500094,0.0011822746600955725,-0.000988032203167677,0.18513363599777222,1.2897485494613647,-3.3343260288238525,0.022035546600818634,-0.003894309513270855,3.4132217479054816e-06,0.00018979025480803102,3.695014715194702,10.0,0.0,0.0,0.0,0.0,0.0,32.766,32.766,0.28,32.766,2.848,2018.236572265625,809.9873046875,28.685626983642578,,False,
1783703781.8220015,2026-07-10T10:16:21,213411,20260710_101616,,,,,,ground_idle,,,,,,,,,False,0.023829035460948944,0.004834739491343498,1.0001461505889893,-0.22857017815113068,0.1132371723651886,0.05888656899333,0.0,-1.0,69.0,23.0,0.023,0.6784201264381409,-0.44862017035484314,0.022391030564904213,-0.0012943175388500094,0.0011822746600955725,-0.000988032203167677,0.18513363599777222,1.2897485494613647,-3.3343260288238525,0.0223765280097723,-0.0005861001554876566,3.3150788567581913e-06,0.00018462250591255724,3.695014715194702,10.0,0.0,0.0,0.0,0.0,0.0,32.766,0.318,0.279,0.341,2.853,2018.236572265625,809.9873046875,28.685626983642578,,False,
1783703781.8321614,2026-07-10T10:16:21,213421,20260710_101616,,,,,,ground_idle,,,,,,,,,False,0.024011710658669472,0.0036434221547096968,1.0007033348083496,-0.12050718069076538,-0.09910456836223602,-0.012611005455255508,0.0,-1.0,72.0,23.0,0.023,0.6789153218269348,-0.4486343562602997,0.022377317771315575,0.0013934036251157522,0.0008284802315756679,-0.0005730415578000247,0.18281616270542145,1.2671562433242798,-3.3274941444396973,0.0223765280097723,-0.0005861001554876566,3.3150788567581913e-06,0.00018462250591255724,3.695014715194702,10.0,0.0,0.0,0.0,0.0,0.0,32.766,0.318,0.279,0.341,2.853,2018.236572265625,809.9873046875,28.685626983642578,,False,
1783703781.8423421,2026-07-10T10:16:21,213433,20260710_101616,,,,,,ground_idle,,,,,,,,,False,0.023907553404569626,0.0022624805569648743,0.9994223117828369,0.3302801549434662,0.09118857234716415,0.16285815834999084,0.0,-1.0,63.0,23.0,0.023,0.6789153218269348,-0.4486343562602997,0.022377317771315575,0.0013934036251157522,0.0008284802315756679,-0.0005730415578000247,0.18281616270542145,1.2671562433242798,-3.3274941444396973,0.0223765280097723,-0.0005861001554876566,3.3150788567581913e-06,0.00018462250591255724,3.695014715194702,10.0,0.0,0.0,0.0,0.0,0.0,32.766,0.318,0.279,0.341,2.853,2018.236572265625,809.9873046875,28.685626983642578,,False,
1783703781.852502,2026-07-10T10:16:21,213443,20260710_101616,,,,,,ground_idle,,,,,,,,,False,0.025526786223053932,0.0039942823350429535,1.0009320974349976,-0.11255186051130295,-0.18571844696998596,-0.11897122859954834,-1.0,1.0,63.0,23.0,0.023,0.6791830658912659,-0.44863465428352356,0.022367188706994057,0.0029248245991766453,0.0008427453576587141,-0.00045679794857278466,0.1807800531387329,1.2567919492721558,-3.3210160732269287,0.0223765280097723,-0.0005861001554876566,3.3150788567581913e-06,0.00018462250591255724,3.695014715194702,10.0,0.0,0.0,0.0,0.0,0.0,32.766,0.318,0.279,0.341,2.853,2018.236572265625,809.9873046875,28.685626983642578,,False,
1783703781.8626835,2026-07-10T10:16:21,213453,20260710_101616,,,,,,ground_idle,,,,,,,,,False,0.025507157668471336,0.004685521125793457,1.0022566318511963,0.13121426105499268,-0.04832940921187401,-0.06493449211120605,-256.0,1.0,63.0,23.0,0.023,0.6791830658912659,-0.44863465428352356,0.022367188706994057,0.0029248245991766453,0.0008427453576587141,-0.00045679794857278466,0.1807800531387329,1.2567919492721558,-3.3210160732269287,0.0223765280097723,-0.0005861001554876566,3.3150788567581913e-06,0.00018462250591255724,3.695014715194702,10.0,0.0,0.0,0.0,0.0,0.0,32.766,0.318,0.279,0.341,2.853,2018.236572265625,809.9873046875,28.685626983642578,,False,
1783703781.872849,2026-07-10T10:16:21,213463,20260710_101616,,,,,,ground_idle,,,,,,,,,False,0.026302020996809006,0.003091906663030386,1.001891016960144,0.0640471875667572,-0.2169063240289688,0.07314138859510422,-256.0,1.0,63.0,23.0,0.023,0.6789382696151733,-0.44838690757751465,0.022636037319898605,0.0020221867598593235,0.002159174531698227,0.0010146694257855415,0.17251992225646973,1.266270399093628,-3.3155956268310547,0.022647345438599586,0.0011898595839738846,3.4132299333577976e-06,0.0001897952170111239,3.7002933025360107,10.0,0.0,0.0,0.0,0.0,0.0,0.28300000000000003,0.318,0.279,0.341,2.853,2018.23095703125,809.9880981445312,28.69481658935547,,False,
1783703781.8830135,2026-07-10T10:16:21,213473,20260710_101616,,,,,,ground_idle,,,,,,,,,False,0.02384350635111332,0.002171035623177886,1.000484824180603,-0.0049630324356257915,0.1613447070121765,0.0012902544112876058,0.0,0.0,67.0,23.0,0.023,0.6789382696151733,-0.44838690757751465,0.022636037319898605,0.0020221867598593235,0.002159174531698227,0.0010146694257855415,0.17251992225646973,1.266270399093628,-3.3155956268310547,0.022647345438599586,0.0011898595839738846,3.4132299333577976e-06,0.0001897952170111239,3.7002933025360107,10.0,0.0,0.0,0.0,0.0,0.0,0.28300000000000003,0.318,0.279,0.341,2.853,2018.23095703125,809.9880981445312,28.69481658935547,,False,
1783703781.893173,2026-07-10T10:16:21,213483,20260710_101616,,,,,,ground_idle,,,,,,,,,False,0.02528448775410652,0.0032378309406340122,1.0005335807800293,-0.07956794649362564,-0.06973382085561752,0.11354222148656845,0.0,-1.0,71.0,23.0,0.023,0.6792227029800415,-0.44837886095046997,0.022660614922642708,0.003926904872059822,0.0020042192190885544,0.0014370500575751066,0.17495286464691162,1.256549596786499,-3.3085811138153076,0.022647345438599586,0.0011898595839738846,3.4132299333577976e-06,0.0001897952170111239,3.7002933025360107,10.0,0.0,0.0,0.0,0.0,0.0,0.28300000000000003,0.318,0.279,0.341,2.853,2018.23095703125,809.9880981445312,28.69481658935547,,False,
1783703781.9033585,2026-07-10T10:16:21,213493,20260710_101616,,,,,,ground_idle,,,,,,,,,False,0.025398995727300644,0.005906252656131983,1.0016342401504517,0.0730842873454094,0.20100688934326172,0.14129135012626648,0.0,0.0,52.0,23.0,0.023,0.6792227029800415,-0.44837886095046997,0.022660614922642708,0.003926904872059822,0.0020042192190885544,0.0014370500575751066,0.17495286464691162,1.256549596786499,-3.3085811138153076,0.022647345438599586,0.0011898595839738846,3.4132299333577976e-06,0.0001897952170111239,3.7002933025360107,10.0,0.0,0.0,0.0,0.0,0.0,0.28300000000000003,0.318,0.279,0.341,2.853,2018.23095703125,809.9880981445312,28.69481658935547,,False,
1783703781.9135177,2026-07-10T10:16:21,213503,20260710_101616,,,,,,ground_idle,,,,,,,,,False,0.02386072278022766,0.006419267039746046,1.0002011060714722,0.25034481287002563,-0.19900789856910706,0.08910753577947617,0.0,0.0,61.0,23.0,0.023,0.6786918044090271,-0.44834238290786743,0.022824665531516075,0.0014230154920369387,0.0019779186695814133,0.00229510385543108,0.17548538744449615,1.2787262201309204,-3.30218505859375,0.022647345438599586,0.0011898595839738846,3.4132299333577976e-06,0.0001897952170111239,3.7002933025360107,10.0,0.0,0.0,0.0,0.0,0.0,0.28300000000000003,0.318,0.279,0.341,2.853,2018.23095703125,809.9880981445312,28.69481658935547,,False,
1783703781.923683,2026-07-10T10:16:21,213513,20260710_101616,,,,,,ground_idle,,,,,,,,,False,0.023724587634205818,0.00462372275069356,1.0008302927017212,0.026710955426096916,0.07673606276512146,-0.011005325242877007,2.0,-5.0,72.0,23.0,0.023,0.6786918044090271,-0.44834238290786743,0.022824665531516075,0.0014230154920369387,0.0019779186695814133,0.00229510385543108,0.17548538744449615,1.2787262201309204,-3.30218505859375,0.0228731706738472,0.0024566100910305977,3.315095682410174e-06,0.00018463085871189833,3.695014715194702,10.0,0.0,0.0,0.0,0.0,0.0,0.28300000000000003,32.766,0.28,0.337,2.843,2018.23095703125,809.9880981445312,28.69481658935547,,False,
1783703781.9338458,2026-07-10T10:16:21,213523,20260710_101616,,,,,,ground_idle,,,,,,,,,False,0.02420295588672161,0.003868087660521269,1.0010989904403687,-0.12164613604545593,0.010180880315601826,0.07851157337427139,-1.0,2.0,67.0,23.0,0.023,0.6801062822341919,-0.4488700330257416,0.022875428199768066,0.008822381496429443,-0.0008803457603789866,0.0025302518624812365,0.2007668912410736,1.2207056283950806,-3.292314291000366,0.0228731706738472,0.0024566100910305977,3.315095682410174e-06,0.00018463085871189833,3.695014715194702,10.0,0.0,0.0,0.0,0.0,0.0,0.28300000000000003,32.766,0.28,0.337,2.843,2018.23095703125,809.9880981445312,28.69481658935547,,False,
1783703781.9440048,2026-07-10T10:16:21,213535,20260710_101616,,,,,,ground_idle,,,,,,,,,False,0.02564968355000019,0.003638973692432046,1.0001871585845947,0.16088968515396118,0.3292444050312042,0.12775258719921112,0.0,2.0,67.0,23.0,0.023,0.6792361736297607,-0.4486011862754822,0.02293836697936058,0.004215157590806484,0.0008982361759990454,0.002787103410810232,0.2007668912410736,1.2207056283950806,-3.292314291000366,0.0228731706738472,0.0024566100910305977,3.315095682410174e-06,0.00018463085871189833,3.695014715194702,10.0,0.0,0.0,0.0,0.0,0.0,0.28300000000000003,32.766,0.28,0.337,2.843,2018.23095703125,809.9880981445312,28.69481658935547,,False,
1783703781.9541616,2026-07-10T10:16:21,213543,20260710_101616,,,,,,ground_idle,,,,,,,,,False,0.02625674195587635,0.004641224164515734,1.0027921199798584,0.09404849261045456,-0.16846038401126862,0.3232097327709198,0.0,2.0,60.0,20.0,0.02,0.6792361736297607,-0.4486011862754822,0.02293836697936058,0.004215157590806484,0.0008982361759990454,0.002787103410810232,0.18988613784313202,1.2591123580932617,-3.2861666679382324,0.0228731706738472,0.0024566100910305977,3.315095682410174e-06,0.00018463085871189833,3.695014715194702,10.0,0.0,0.0,0.0,0.0,0.0,0.28300000000000003,32.766,0.28,0.337,2.843,2018.23095703125,809.9880981445312,28.69481658935547,,False,
1783703781.9643605,2026-07-10T10:16:21,213555,20260710_101616,,,,,,arming,,,,,,,,,False,0.02518906258046627,0.003211674513295293,1.0020910501480103,-0.11583396792411804,-0.2609316408634186,0.08422871679067612,0.0,2.0,60.0,20.0,0.02,0.6792293787002563,-0.4486008584499359,0.02171439677476883,0.004523523151874542,0.0009129474055953324,-0.0029119367245584726,0.18988613784313202,1.2591123580932617,-3.2861666679382324,0.0228731706738472,0.0024566100910305977,3.315095682410174e-06,0.00018463085871189833,3.695014715194702,10.0,0.0,0.0,0.0,0.0,0.0,0.28300000000000003,32.766,0.28,0.337,2.843,2018.23095703125,809.9880981445312,28.69481658935547,,False,
1783703781.9745347,2026-07-10T10:16:21,213563,20260710_101616,,,,,,arming,,,,,,,,,False,0.02357836812734604,0.0023854512255638838,1.000807523727417,0.03264114633202553,0.18926644325256348,-0.024842169135808945,0.0,2.0,60.0,20.0,0.02,0.6792293787002563,-0.4486008584499359,0.02171439677476883,0.004523523151874542,0.0009129474055953324,-0.0029119367245584726,0.19164490699768066,1.258832573890686,-3.27803111076355,0.021686453372240067,-0.002782858209684491,3.4132058317482006e-06,0.0001897903421195224,3.7002933025360107,10.0,0.0,0.0,0.0,0.0,0.0,32.766,32.766,0.28,0.337,2.843,2018.3294677734375,809.9791259765625,28.703292846679688,,False,
1783703781.9847035,2026-07-10T10:16:21,213575,20260710_101616,,,,,,arming,,,,,,,,,False,0.024691816419363022,0.004101061262190342,1.001207947731018,0.14039747416973114,0.2935115098953247,-0.027088571339845657,0.0,0.0,68.0,20.0,0.02,0.6795364022254944,-0.4486032724380493,0.0216594859957695,0.006027167662978172,0.0006709699518978596,-0.0025622169487178326,0.19164490699768066,1.258832573890686,-3.27803111076355,0.021686453372240067,-0.002782858209684491,3.4132058317482006e-06,0.0001897903421195224,3.7002933025360107,10.0,0.0,0.0,0.0,0.0,0.0,32.766,32.766,0.28,0.337,2.843,2018.3294677734375,809.9791259765625,28.703292846679688,,False,
1783703781.994903,2026-07-10T10:16:21,213583,20260710_101616,,,,,,arming,,,,,,,,,False,0.023913633078336716,0.004496417939662933,1.001802682876587,-0.06336884945631027,0.05763969197869301,-0.038456760346889496,0.0,-1.0,74.0,20.0,0.02,0.6795364022254944,-0.4486032724380493,0.0216594859957695,0.006027167662978172,0.0006709699518978596,-0.0025622169487178326,0.1916651427745819,1.2456915378570557,-3.271488904953003,0.021686453372240067,-0.002782858209684491,3.4132058317482006e-06,0.0001897903421195224,3.7002933025360107,10.0,0.0,0.0,0.0,0.0,0.0,32.766,32.766,0.28,0.337,2.843,2018.3294677734375,809.9791259765625,28.703292846679688,,False,
1783703782.005065,2026-07-10T10:16:22,213595,20260710_101616,,,,,,arming,,,,,,,,,False,0.02139512076973915,0.00335243484005332,1.0015051364898682,0.11441860347986221,-0.10781680792570114,0.04666398838162422,0.0,0.0,55.0,22.0,0.022,0.6790255904197693,-0.4485802948474884,0.021780600771307945,0.003389208810403943,0.0009125692886300385,-0.0013060049386695027,0.1916651427745819,1.2456915378570557,-3.271488904953003,0.021686453372240067,-0.002782858209684491,3.4132058317482006e-06,0.0001897903421195224,3.7002933025360107,10.0,0.0,0.0,0.0,0.0,0.0,32.766,32.766,0.28,0.337,2.843,2018.3294677734375,809.9791259765625,28.703292846679688,,False,
1783703782.0152388,2026-07-10T10:16:22,213603,20260710_101616,,,,,,arming,,,,,,,,,False,0.027374353259801865,0.002645191503688693,0.9999753832817078,-0.18427307903766632,-0.1969263255596161,-0.14575444161891937,0.0,0.0,65.0,22.0,0.022,0.6790255904197693,-0.4485802948474884,0.021780600771307945,0.003389208810403943,0.0009125692886300385,-0.0013060049386695027,0.19301728904247284,1.2632968425750732,-3.2639107704162598,0.021686453372240067,-0.002782858209684491,3.4132058317482006e-06,0.0001897903421195224,3.7002933025360107,10.0,0.0,0.0,0.0,0.0,0.0,32.766,32.766,0.28,0.337,2.843,2018.3294677734375,809.9791259765625,28.703292846679688,,False,
1783703782.0255067,2026-07-10T10:16:22,213615,20260710_101616,,,,,,arming,,,,,,,,,False,0.0264766626060009,0.004280105233192444,1.00014066696167,0.119465172290802,-0.035215113312006,0.15882743895053864,1.0,-3.0,75.0,22.0,0.022,0.6798872947692871,-0.44885626435279846,0.021755622699856758,0.00781844649463892,-0.0009267861605621874,-0.001145277637988329,0.19301728904247284,1.2632968425750732,-3.2639107704162598,0.02175663784146309,-0.0012341715628281236,3.315080675747595e-06,0.00018462650768924505,3.695014715194702,10.0,0.0,0.0,0.0,0.0,0.0,32.766,32.766,0.28,0.34800000000000003,2.829,2018.3294677734375,809.9791259765625,28.703292846679688,,False,
1783703782.0356705,2026-07-10T10:16:22,213623,20260710_101616,,,,,,arming,,,,,,,,,False,0.026828128844499588,0.005597331095486879,0.9986975789070129,-0.2015867829322815,-0.08533106744289398,0.10718908160924911,-1.0,2.0,64.0,22.0,0.022,0.6798872947692871,-0.44885626435279846,0.021755622699856758,0.00781844649463892,-0.0009267861605621874,-0.001145277637988329,0.20411355793476105,1.2326269149780273,-3.2559280395507812,0.02175663784146309,-0.0012341715628281236,3.315080675747595e-06,0.00018462650768924505,3.695014715194702,10.0,0.0,0.0,0.0,0.0,0.0,32.766,32.766,0.28,0.34800000000000003,2.829,2018.3294677734375,809.9791259765625,28.703292846679688,,False,
1783703782.0458488,2026-07-10T10:16:22,213635,20260710_101616,,,,,,arming,,,,,,,,,False,0.02576087787747383,0.005353592801839113,0.9993424415588379,0.01818065345287323,0.08746645599603653,-0.030132146552205086,0.0,2.0,64.0,22.0,0.022,0.6793534755706787,-0.44858041405677795,0.021739209070801735,0.005492920987308025,0.0009654239402152598,-0.001179757877252996,0.20411355793476105,1.2326269149780273,-3.2559280395507812,0.02175663784146309,-0.0012341715628281236,3.315080675747595e-06,0.00018462650768924505,3.695014715194702,10.0,0.0,0.0,0.0,0.0,0.0,32.766,32.766,0.28,0.34800000000000003,2.829,2018.3294677734375,809.9791259765625,28.703292846679688,,False,
1783703782.056032,2026-07-10T10:16:22,213643,20260710_101616,,,,,,arming,,,,,,,,,False,0.02343866601586342,0.005018553230911493,1.0012344121932983,-0.2307855784893036,-0.013522862456738949,-0.24810102581977844,0.0,0.0,61.0,25.0,0.025,0.6793534755706787,-0.44858041405677795,0.021739209070801735,0.005492920987308025,0.0009654239402152598,-0.001179757877252996,0.19183827936649323,1.2609443664550781,-3.2496302127838135,0.02175663784146309,-0.0012341715628281236,3.315080675747595e-06,0.00018462650768924505,3.695014715194702,10.0,0.0,0.0,0.0,0.0,0.0,32.766,32.766,0.28,0.34800000000000003,2.829,2018.3294677734375,809.9791259765625,28.703292846679688,,False,
1783703782.0662143,2026-07-10T10:16:22,213655,20260710_101616,,,,,,arming,,,,,,,,,False,0.023341985419392586,0.003577284049242735,0.9990829825401306,0.13715648651123047,-0.020871533080935478,-0.2819162607192993,0.0,0.0,61.0,25.0,0.025,0.6794446110725403,-0.4485595226287842,0.023142220452427864,0.005897657014429569,0.0012582369381561875,0.005733659490942955,0.19183827936649323,1.2609443664550781,-3.2496302127838135,0.02175663784146309,-0.0012341715628281236,3.315080675747595e-06,0.00018462650768924505,3.695014715194702,10.0,0.0,0.0,0.0,0.0,0.0,32.766,32.766,0.28,0.34800000000000003,2.829,2018.3294677734375,809.9791259765625,28.703292846679688,,False,
1783703782.0764863,2026-07-10T10:16:22,213663,20260710_101616,,,,,,arming,,,,,,,,,False,0.02318616397678852,0.006137932185083628,0.999867856502533,0.1981854885816574,0.24537070095539093,0.09420997649431229,0.0,0.0,69.0,25.0,0.025,0.6794446110725403,-0.4485595226287842,0.023142220452427864,0.005897657014429569,0.0012582369381561875,0.005733659490942955,0.19055329263210297,1.2603003978729248,-3.2437283992767334,0.023199094459414482,0.005503673106431961,3.413242438909947e-06,0.00018980013555847108,3.7002933025360107,10.0,0.0,0.0,0.0,0.0,0.0,32.766,32.766,0.28,0.34800000000000003,2.829,2018.159912109375,809.9942016601562,28.715925216674805,,False,
1783703782.0867803,2026-07-10T10:16:22,213678,20260710_101616,,,,,,arming,,,,,,,,,False,0.02427099272608757,0.004320232663303614,0.9997925162315369,-0.06401071697473526,0.03648099675774574,0.031886231154203415,0.0,0.0,73.0,25.0,0.025,0.6795653104782104,-0.4485323131084442,0.023255448788404465,0.006180877797305584,0.0015464747557416558,0.005629922728985548,0.1916782706975937,1.2567102909088135,-3.2373247146606445,0.023199094459414482,0.005503673106431961,3.413242438909947e-06,0.00018980013555847108,3.7002933025360107,10.0,0.0,0.0,0.0,0.0,0.0,32.766,32.766,0.28,0.34800000000000003,2.829,2018.159912109375,809.9942016601562,28.715925216674805,,False,
1783703782.0969603,2026-07-10T10:16:22,213683,20260710_101616,,,,,,arming,,,,,,,,,False,0.024022692814469337,0.0049300165846943855,0.9991739392280579,0.12399157136678696,0.007863841950893402,0.04651510342955589,0.0,0.0,50.0,25.0,0.025,0.6795653104782104,-0.4485323131084442,0.023255448788404465,0.006180877797305584,0.0015464747557416558,0.005629922728985548,0.1916782706975937,1.2567102909088135,-3.2373247146606445,0.023199094459414482,0.005503673106431961,3.413242438909947e-06,0.00018980013555847108,3.7002933025360107,10.0,0.0,0.0,0.0,0.0,0.0,32.766,32.766,0.28,0.34800000000000003,2.829,2018.159912109375,809.9942016601562,28.715925216674805,,False,
1783703782.1071382,2026-07-10T10:16:22,213698,20260710_101616,,,,,,arming,,,,,,,,,False,0.02344774827361107,0.007473321165889502,1.0021600723266602,-0.05588048696517944,0.09622780233621597,0.0840974748134613,1.0,-3.0,54.0,20.0,0.02,0.6806719303131104,-0.4488813281059265,0.02192188799381256,0.011362439021468163,-0.00038724098703823984,-0.0018717609345912933,0.2081339955329895,1.2172213792800903,-3.23020601272583,0.023199094459414482,0.005503673106431961,3.413242438909947e-06,0.00018980013555847108,3.7002933025360107,10.0,0.0,0.0,0.0,0.0,0.0,32.766,32.766,0.28,0.34800000000000003,2.829,2018.159912109375,809.9942016601562,28.715925216674805,,False,
1783703782.1175845,2026-07-10T10:16:22,213703,20260710_101616,,,,,,arming,,,,,,,,,False,0.02523268759250641,0.004022585693746805,1.0023561716079712,0.30376747250556946,0.40345728397369385,-0.08569451421499252,-1.0,3.0,60.0,20.0,0.02,0.6806719303131104,-0.4488813281059265,0.02192188799381256,0.011362439021468163,-0.00038724098703823984,-0.0018717609345912933,0.2081339955329895,1.2172213792800903,-3.23020601272583,0.023199094459414482,0.005503673106431961,3.413242438909947e-06,0.00018980013555847108,3.7002933025360107,10.0,0.0,0.0,0.0,0.0,0.0,32.766,32.766,0.28,0.34800000000000003,2.829,2018.159912109375,809.9942016601562,28.715925216674805,,False,
1783703782.1277554,2026-07-10T10:16:22,213718,20260710_101616,,,,,,arming,,,,,,,,,False,0.02500365860760212,0.0003144596121273935,1.0035574436187744,0.16377204656600952,0.011521290056407452,-0.11863839626312256,0.0,0.0,72.0,20.0,0.02,0.6796257495880127,-0.4485180675983429,0.021900255233049393,0.006066603120416403,0.001874433597549796,-0.001315995235927403,0.19511361420154572,1.2592624425888062,-3.226846218109131,0.021900255233049393,-0.0014540005940943956,3.3150513445434626e-06,0.00018462774460203946,3.695014715194702,10.0,0.0,0.0,0.0,0.0,0.0,32.766,0.312,0.28200000000000003,0.34700000000000003,2.857,2018.159912109375,809.9942016601562,28.715925216674805,,False,
1783703782.1379292,2026-07-10T10:16:22,213723,20260710_101616,,,,,,arming,,,,,,,,,False,0.02332950383424759,0.003949452191591263,1.0016955137252808,0.07820019870996475,0.4260765314102173,0.2010422796010971,0.0,-1.0,66.0,20.0,0.02,0.6796257495880127,-0.4485180675983429,0.021900255233049393,0.006066603120416403,0.001874433597549796,-0.001315995235927403,0.19511361420154572,1.2592624425888062,-3.226846218109131,0.021900255233049393,-0.0014540005940943956,3.3150513445434626e-06,0.00018462774460203946,3.695014715194702,10.0,0.0,0.0,0.0,0.0,0.0,32.766,0.312,0.28200000000000003,0.34700000000000003,2.857,2018.159912109375,809.9942016601562,28.715925216674805,,False,
1783703782.1481104,2026-07-10T10:16:22,213738,20260710_101616,,,,,,arming,,,,,,,,,False,0.02644205093383789,0.00430265674367547,1.0015052556991577,0.013985902070999146,-0.22526796162128448,0.03680777922272682,0.0,1.0,73.0,20.0,0.02,0.6795572638511658,-0.4485354423522949,0.021881598979234695,0.005486337933689356,0.001371496939100325,-0.0007803212502039969,0.19885243475437164,1.2616552114486694,-3.2198455333709717,0.021900255233049393,-0.0014540005940943956,3.3150513445434626e-06,0.00018462774460203946,3.695014715194702,10.0,0.0,0.0,0.0,0.0,0.0,32.766,0.312,0.28200000000000003,0.34700000000000003,2.857,2018.159912109375,809.9942016601562,28.715925216674805,,False,
1783703782.1582873,2026-07-10T10:16:22,213743,20260710_101616,,,,,,arming,,,,,,,,,False,0.026473915204405785,0.0046498435549438,0.9996625185012817,0.14380154013633728,-0.36142483353614807,-0.03800187632441521,0.0,0.0,61.0,23.0,0.023,0.6795572638511658,-0.4485354423522949,0.021881598979234695,0.005486337933689356,0.001371496939100325,-0.0007803212502039969,0.19885243475437164,1.2616552114486694,-3.2198455333709717,0.021900255233049393,-0.0014540005940943956,3.3150513445434626e-06,0.00018462774460203946,3.695014715194702,10.0,0.0,0.0,0.0,0.0,0.0,32.766,0.312,0.28200000000000003,0.34700000000000003,2.857,2018.159912109375,809.9942016601562,28.715925216674805,,False,
1783703782.1684606,2026-07-10T10:16:22,213759,20260710_101616,,,,,,arming,,,,,,,,,False,0.026325352489948273,0.003686885815113783,0.9996015429496765,-0.1804996281862259,0.1846752017736435,0.011757127940654755,0.0,0.0,61.0,23.0,0.023,0.6796677112579346,-0.4485075771808624,0.02235691249370575,0.006290307734161615,0.001491943490691483,0.001657178159803152,0.19843539595603943,1.261656403541565,-3.213606119155884,0.022373713552951813,0.0015519428998231888,3.413214244574192e-06,0.0001898006594274193,3.695014715194702,10.0,0.0,0.0,0.0,0.0,0.0,32.766,0.312,0.28200000000000003,0.34700000000000003,2.857,2018.159912109375,809.9942016601562,28.715925216674805,,False,
1783703782.1786366,2026-07-10T10:16:22,213763,20260710_101616,,,,,,arming,,,,,,,,,False,0.023808632045984268,0.00417208019644022,1.0013301372528076,-0.08573790639638901,-0.27573060989379883,0.190694659948349,0.0,0.0,65.0,23.0,0.023,0.6796677112579346,-0.4485075771808624,0.02235691249370575,0.006290307734161615,0.001491943490691483,0.001657178159803152,0.19843539595603943,1.261656403541565,-3.213606119155884,0.022373713552951813,0.0015519428998231888,3.413214244574192e-06,0.0001898006594274193,3.7002933025360107,10.0,0.0,0.0,0.0,0.0,0.0,32.766,0.312,0.28200000000000003,0.34700000000000003,2.857,2018.23095703125,809.9879760742188,28.724163055419922,,False,
1783703782.1888144,2026-07-10T10:16:22,213778,20260710_101616,,,,,,arming,,,,,,,,,False,0.02522881329059601,0.0052163004875183105,0.9999284148216248,-0.029645297676324844,0.32550811767578125,0.2522214651107788,0.0,0.0,65.0,23.0,0.023,0.6800626516342163,-0.44851574301719666,0.02239055559039116,0.008088290691375732,0.0013557526981458068,0.001856051618233323,0.19733566045761108,1.2513483762741089,-3.2064859867095947,0.022373713552951813,0.0015519428998231888,3.413214244574192e-06,0.0001898006594274193,3.7002933025360107,10.0,0.0,0.0,0.0,0.0,0.0,32.766,0.312,0.28200000000000003,0.34700000000000003,2.857,2018.23095703125,809.9879760742188,28.724163055419922,,False,
1783703782.198991,2026-07-10T10:16:22,213783,20260710_101616,,,,,,arming,,,,,,,,,False,0.024772565811872482,0.0038840356282889843,1.0003312826156616,0.19348154962062836,-0.36410677433013916,0.06724873930215836,0.0,-1.0,81.0,23.0,0.023,0.6800626516342163,-0.44851574301719666,0.02239055559039116,0.008088290691375732,0.0013557526981458068,0.001856051618233323,0.19733566045761108,1.2513483762741089,-3.2064859867095947,0.022373713552951813,0.0015519428998231888,3.413214244574192e-06,0.0001898006594274193,3.7002933025360107,10.0,0.0,0.0,0.0,0.0,0.0,32.766,0.312,0.28200000000000003,0.34700000000000003,2.857,2018.23095703125,809.9879760742188,28.724163055419922,,False,
1783703782.2091582,2026-07-10T10:16:22,213798,20260710_101616,,,,,,arming,,,,,,,,,False,0.024806303903460503,0.0035439778584986925,0.9981257915496826,0.09168200194835663,0.4058935046195984,-0.017220403999090195,0.0,1.0,51.0,23.0,0.023,0.6792289614677429,-0.44851183891296387,0.022676443681120872,0.00411673728376627,0.0014029608573764563,0.0032066500280052423,0.1988440603017807,1.283666968345642,-3.197767496109009,0.022373713552951813,0.0015519428998231888,3.413214244574192e-06,0.0001898006594274193,3.7002933025360107,10.0,0.0,0.0,0.0,0.0,0.0,32.766,0.312,0.28200000000000003,0.34700000000000003,2.857,2018.23095703125,809.9879760742188,28.724163055419922,,False,
1783703782.2193375,2026-07-10T10:16:22,213809,20260710_101616,,,,,,arming,,,,,,,,,False,0.02425304800271988,0.004601322114467621,0.9989953637123108,-0.05322623252868652,0.5399156808853149,-0.014394169673323631,0.0,-1.0,51.0,23.0,0.023,0.6792289614677429,-0.44851183891296387,0.022676443681120872,0.00411673728376627,0.0014029608573764563,0.0032066500280052423,0.1988440603017807,1.283666968345642,-3.197767496109009,0.02273845113813877,0.0028879260644316673,3.315077719889814e-06,0.00018462449952494353,3.7002933025360107,10.0,0.0,0.0,0.0,0.0,0.0,32.766,0.312,0.28200000000000003,0.34700000000000003,2.857,2018.23095703125,809.9879760742188,28.724163055419922,,False,
1783703782.2295632,2026-07-10T10:16:22,213821,20260710_101616,,,,,,arming,,,,,,,,,False,0.022870192304253578,0.004154408350586891,0.9986928701400757,0.06750458478927612,0.0504441000521183,-0.03446241840720177,0.0,0.0,73.0,23.0,0.023,0.6796123385429382,-0.4485204517841339,0.02273845113813877,0.005875317379832268,0.0013708826154470444,0.00302248727530241,0.2016182839870453,1.2652336359024048,-3.1917927265167236,0.02273845113813877,0.0028879260644316673,3.315077719889814e-06,0.00018462449952494353,3.695014715194702,10.0,0.0,0.0,0.0,0.0,0.0,32.766,32.766,0.28500000000000003,32.766,2.853,2018.23095703125,809.9879760742188,28.724163055419922,,False,
1783703782.239736,2026-07-10T10:16:22,213823,20260710_101616,,,,,,arming,,,,,,,,,False,0.022870192304253578,0.004154408350586891,0.9986928701400757,0.06750458478927612,0.0504441000521183,-0.03446241840720177,0.0,0.0,62.0,23.0,0.023,0.6796123385429382,-0.4485204517841339,0.02273845113813877,0.005875317379832268,0.0013708826154470444,0.00302248727530241,0.2016182839870453,1.2652336359024048,-3.1917927265167236,0.02273845113813877,0.0028879260644316673,3.315077719889814e-06,0.00018462449952494353,3.695014715194702,10.0,0.0,0.0,0.0,0.0,0.0,32.766,32.766,0.28500000000000003,32.766,2.853,2018.23095703125,809.9879760742188,28.724163055419922,,False,
1783703782.2499042,2026-07-10T10:16:22,213838,20260710_101616,,,,,,arming,,,,,,,,,False,0.025494808331131935,0.0036048642359673977,1.0012707710266113,0.09489018470048904,0.18618454039096832,-0.04899514093995094,0.0,0.0,62.0,23.0,0.023,0.6797325611114502,-0.44848987460136414,0.02279692329466343,0.006141363177448511,0.0016347349155694246,0.00285028456710279,0.198370561003685,1.2634782791137695,-3.184727191925049,0.02273845113813877,0.0028879260644316673,3.315077719889814e-06,0.00018462449952494353,3.695014715194702,10.0,0.0,0.0,0.0,0.0,0.0,32.766,32.766,0.28500000000000003,32.766,2.853,2018.23095703125,809.9879760742188,28.724163055419922,,False,
1783703782.2600818,2026-07-10T10:16:22,213851,20260710_101616,,,,,,arming,,,,,,,,,False,0.024899465963244438,0.002791463630273938,1.0010944604873657,-0.438112735748291,-0.0866980254650116,-0.07841851562261581,0.0,0.0,60.0,25.0,0.025,0.6797325611114502,-0.44848987460136414,0.02279692329466343,0.006141363177448511,0.0016347349155694246,0.00285028456710279,0.198370561003685,1.2634782791137695,-3.184727191925049,0.02273845113813877,0.0028879260644316673,3.315077719889814e-06,0.00018462449952494353,3.695014715194702,10.0,0.0,0.0,0.0,0.0,0.0,32.766,32.766,0.28500000000000003,32.766,2.853,2018.23095703125,809.9879760742188,28.724163055419922,,False,
1783703782.2702622,2026-07-10T10:16:22,213861,20260710_101616,,,,,,arming,,,,,,,,,False,0.024899465963244438,0.002791463630273938,1.0010944604873657,-0.438112735748291,-0.0866980254650116,-0.07841851562261581,0.0,0.0,60.0,25.0,0.025,4.668588189815637e-06,3.7764945659546356e-07,-1.4624674804508686e-08,0.0015561938052996993,0.00012587325181812048,-4.8512797548028175e-06,-0.0001562179095344618,0.0008923502755351365,-0.0003540144534781575,2.9323564376682043e-07,6.672521703876555e-05,1.0,0.00011700000322889537,3.7002933025360107,10.0,0.0,0.0,0.0,0.0,0.0,32.766,32.766,0.28500000000000003,32.766,2.853,2018.23095703125,809.9879760742188,28.724163055419922,,False,
1783703782.2804985,2026-07-10T10:16:22,213871,20260710_101616,,,,,,arming,,,,,,,,,False,0.024743923917412758,0.0015222218353301287,1.0012363195419312,-0.12812215089797974,0.23801568150520325,0.02964984066784382,0.0,1.0,68.0,25.0,0.025,4.668588189815637e-06,3.7764945659546356e-07,-1.4624674804508686e-08,0.0015561938052996993,0.00012587325181812048,-4.8512797548028175e-06,-0.0001562179095344618,0.0008923502755351365,-0.0003540144534781575,2.9323564376682043e-07,6.672521703876555e-05,1.0,0.00011700000322889537,3.7002933025360107,10.0,0.0,0.0,0.0,0.0,0.0,32.766,32.766,0.28500000000000003,32.766,2.853,2018.2857666015625,809.9833984375,28.73208999633789,,False,
1783703782.2906477,2026-07-10T10:16:22,213881,20260710_101616,,,,,,arming,,,,,,,,,False,0.026878006756305695,0.002825950738042593,1.0008323192596436,0.22858649492263794,0.2262318879365921,0.3408760130405426,0.0,1.0,68.0,25.0,0.025,8.070001058513299e-05,7.299990102183074e-06,0.2058788686990738,0.006223108619451523,0.0006542479968629777,0.00010274226951878518,-0.0022464669309556484,-0.0027590710669755936,0.0010778860887512565,2.9323564376682043e-07,6.672521703876555e-05,1.0,0.00011700000322889537,3.7002933025360107,10.0,0.0,0.0,0.0,0.0,0.0,32.766,32.766,0.28500000000000003,32.766,2.853,2018.2857666015625,809.9833984375,28.73208999633789,,False,
1783703782.300798,2026-07-10T10:16:22,213891,20260710_101616,,,,,,arming,,,,,,,,,False,0.02487761154770851,0.002915640128776431,0.9985836744308472,0.24254260957241058,0.07410960644483566,-0.12238315492868423,0.0,-2.0,78.0,25.0,0.025,8.070001058513299e-05,7.299990102183074e-06,0.2058788686990738,0.006223108619451523,0.0006542479968629777,0.00010274226951878518,-0.0022464669309556484,-0.0027590710669755936,0.0010778860887512565,2.9323564376682043e-07,6.672521703876555e-05,1.0,0.00011700000322889537,3.7002933025360107,10.0,0.0,0.0,0.0,0.0,0.0,32.766,32.766,0.28500000000000003,32.766,2.853,2018.2857666015625,809.9833984375,28.73208999633789,,False,
1783703782.3109467,2026-07-10T10:16:22,213901,20260710_101616,,,,,,arming,,,,,,,,,False,0.025974692776799202,0.0029143248684704304,0.998300313949585,0.1640634536743164,-0.11507172882556915,0.149831160902977,0.0,-1.0,53.0,23.0,0.023,0.00017379286873620003,1.6696809325367212e-05,0.02300354279577732,0.009382741525769234,0.0009097139118239284,0.00022163023822940886,0.0012100415769964457,0.01854020357131958,0.004433657508343458,2.9323564376682043e-07,6.672521703876555e-05,1.0,0.00011700000322889537,3.7002933025360107,10.0,0.0,0.0,0.0,0.0,0.0,32.766,32.766,0.28500000000000003,32.766,2.853,2018.2857666015625,809.9833984375,28.73208999633789,,False,
1783703782.3211277,2026-07-10T10:16:22,213911,20260710_101616,,,,,,arming,,,,,,,,,False,0.025665218010544777,0.003301438642665744,0.9998176693916321,0.015893639996647835,-0.07236366719007492,0.035982921719551086,0.0,-1.0,63.0,23.0,0.023,0.00017379286873620003,1.6696809325367212e-05,0.02300354279577732,0.009382741525769234,0.0009097139118239284,0.00022163023822940886,0.0012100415769964457,0.01854020357131958,0.004433657508343458,0.023002151399850845,-2.0892604879918508e-05,6.321523414953845e-06,0.00016699964180588722,3.695014715194702,10.0,0.0,0.0,0.0,0.0,0.0,32.766,32.766,0.281,0.34400000000000003,32.766,2018.2857666015625,809.9833984375,28.73208999633789,,False,
1783703782.3313613,2026-07-10T10:16:22,213923,20260710_101616,,,,,,arming,,,,,,,,,False,0.02365519106388092,0.002259962260723114,0.9990269541740417,0.021564923226833344,0.14627695083618164,0.08708596229553223,0.0,1.0,66.0,23.0,0.023,0.000464136537630111,2.9365444788709283e-05,0.022999748587608337,0.01532797235995531,0.0013165159616619349,-2.3795419110683724e-05,0.008003711700439453,-0.006443067919462919,0.003926760517060757,0.023002151399850845,-2.0892604879918508e-05,6.321523414953845e-06,0.00016699964180588722,3.695014715194702,10.0,0.0,0.0,0.0,0.0,0.0,32.766,32.766,0.281,0.34400000000000003,32.766,2018.2857666015625,809.9833984375,28.73208999633789,,False,
1783703782.3415139,2026-07-10T10:16:22,213933,20260710_101616,,,,,,arming,,,,,,,,,False,0.02484593540430069,0.0033238050527870655,1.0006952285766602,0.031599339097738266,-0.014968066476285458,0.0008841608068905771,0.0,1.0,66.0,23.0,0.023,0.000464136537630111,2.9365444788709283e-05,0.022999748587608337,0.01532797235995531,0.0013165159616619349,-2.3795419110683724e-05,0.008003711700439453,-0.006443067919462919,0.003926760517060757,0.023002151399850845,-2.0892604879918508e-05,6.321523414953845e-06,0.00016699964180588722,3.695014715194702,10.0,0.0,0.0,0.0,0.0,0.0,32.766,32.766,0.281,0.34400000000000003,32.766,2018.2857666015625,809.9833984375,28.73208999633789,,False,
1783703782.3516715,2026-07-10T10:16:22,213943,20260710_101616,,,,,,arming,,,,,,,,,False,0.02447804994881153,0.0032251193188130856,0.9988280534744263,-0.07853563874959946,-0.13346023857593536,0.08197158575057983,0.0,1.0,65.0,21.0,0.021,0.000632557668723166,5.390490696299821e-05,0.023019229993224144,0.017243389040231705,0.0017053235787898302,-0.00010128347639692947,0.011334046721458435,0.06696736812591553,0.004443375859409571,0.023002151399850845,-2.0892604879918508e-05,6.321523414953845e-06,0.00016699964180588722,3.695014715194702,10.0,0.0,0.0,0.0,0.0,0.0,32.766,32.766,0.281,0.34400000000000003,32.766,2018.2857666015625,809.9833984375,28.73208999633789,,False,
1783703782.3618343,2026-07-10T10:16:22,213953,20260710_101616,,,,,,arming,,,,,,,,,False,0.02335195057094097,0.003654239932075143,0.9990919232368469,-0.10601365566253662,0.02511523850262165,-0.08205045014619827,0.0,1.0,65.0,21.0,0.021,0.000632557668723166,5.390490696299821e-05,0.023019229993224144,0.017243389040231705,0.0017053235787898302,-0.00010128347639692947,0.011334046721458435,0.06696736812591553,0.004443375859409571,0.023002151399850845,-2.0892604879918508e-05,6.321523414953845e-06,0.00016699964180588722,3.695014715194702,10.0,0.0,0.0,0.0,0.0,0.0,32.766,32.766,0.281,0.34400000000000003,32.766,2018.2857666015625,809.9833984375,28.73208999633789,,False,
1783703782.3720098,2026-07-10T10:16:22,213963,20260710_101616,,,,,,arming,,,,,,,,,False,0.02483535371720791,0.004639045801013708,0.9997308254241943,-0.2743459641933441,-0.07583924382925034,-0.0048484280705451965,0.0,1.0,65.0,21.0,0.021,0.0007784210029058158,6.988346285652369e-05,0.021977562457323074,0.01840990222990513,0.0019561699591577053,-0.0011789645068347454,0.019886011257767677,0.15909573435783386,0.005466758273541927,0.02196543850004673,-0.001303014112636447,3.570076842152048e-06,0.00021337946236599237,3.7002933025360107,10.0,0.0,0.0,0.0,0.0,0.0,0.28,32.766,0.281,0.34400000000000003,32.766,2018.2857666015625,809.9833374023438,28.740768432617188,,False,
1783703782.382174,2026-07-10T10:16:22,213973,20260710_101616,,,,,,arming,,,,,,,,,False,0.02500147372484207,0.004730165470391512,1.0000700950622559,0.3786659836769104,-0.006511886604130268,0.10749603062868118,0.0,0.0,70.0,21.0,0.021,0.0007784210029058158,6.988346285652369e-05,0.021977562457323074,0.01840990222990513,0.0019561699591577053,-0.0011789645068347454,0.019886011257767677,0.15909573435783386,0.005466758273541927,0.02196543850004673,-0.001303014112636447,3.570076842152048e-06,0.00021337946236599237,3.7002933025360107,10.0,0.0,0.0,0.0,0.0,0.0,0.28,32.766,0.281,0.34400000000000003,32.766,2018.2857666015625,809.9833374023438,28.740768432617188,,False,
1783703782.3923457,2026-07-10T10:16:22,213983,20260710_101616,,,,,,arming,,,,,,,,,False,0.0250697061419487,0.002773695858195424,0.9986604452133179,0.1433621346950531,-0.4742155969142914,-0.14210344851016998,0.0,0.0,75.0,21.0,0.021,0.0011878024088218808,0.00011643204197753221,0.021952953189611435,0.022571690380573273,0.0027428946923464537,-0.0012515977723523974,0.017494026571512222,0.1587975174188614,0.004582534544169903,0.02196543850004673,-0.001303014112636447,3.570076842152048e-06,0.00021337946236599237,3.7002933025360107,10.0,0.0,0.0,0.0,0.0,0.0,0.28,32.766,0.281,0.34400000000000003,32.766,2018.2857666015625,809.9833374023438,28.740768432617188,,False,
1783703782.4025416,2026-07-10T10:16:22,213993,20260710_101616,,,,,,arming,,,,,,,,,False,0.02421075478196144,0.003732870565727353,1.0009098052978516,0.08119423687458038,-0.23421455919742584,-0.08218438923358917,0.0,0.0,52.0,24.0,0.024,0.0011878024088218808,0.00011643204197753221,0.021952953189611435,0.022571690380573273,0.0027428946923464537,-0.0012515977723523974,0.017494026571512222,0.1587975174188614,0.004582534544169903,0.02196543850004673,-0.001303014112636447,3.570076842152048e-06,0.00021337946236599237,3.7002933025360107,10.0,0.0,0.0,0.0,0.0,0.0,0.28,32.766,0.281,0.34400000000000003,32.766,2018.2857666015625,809.9833374023438,28.740768432617188,,False,
1783703782.4126935,2026-07-10T10:16:22,214003,20260710_101616,,,,,,arming,,,,,,,,,False,0.02292209304869175,0.0027713023591786623,1.0014559030532837,-0.08662459999322891,0.45576414465904236,0.026570141315460205,0.0,0.0,60.0,24.0,0.024,0.0016860911855474114,0.00017881585517898202,0.02277560345828533,0.026907702907919884,0.0033990382216870785,0.0018142848275601864,0.020899010822176933,0.16309301555156708,0.0037947155069559813,0.02196543850004673,-0.001303014112636447,3.570076842152048e-06,0.00021337946236599237,3.7002933025360107,10.0,0.0,0.0,0.0,0.0,0.0,0.28,32.766,0.281,0.34400000000000003,32.766,2018.2857666015625,809.9833374023438,28.740768432617188,,False,
1783703782.4236228,2026-07-10T10:16:22,214013,20260710_101616,,,,,,arming,,,,,,,,,False,0.025482743978500366,0.0033573065884411335,0.9998101592063904,0.09423994272947311,-0.23800964653491974,-0.1792767196893692,0.0,0.0,64.0,24.0,0.024,0.0016860911855474114,0.00017881585517898202,0.02277560345828533,0.026907702907919884,0.0033990382216870785,0.0018142848275601864,0.020899010822176933,0.16309301555156708,0.0037947155069559813,0.022814089432358742,0.0019489293918013573,3.0387259357667062e-06,0.00023826584219932556,3.695014715194702,10.0,0.0,0.0,0.0,0.0,0.0,0.28,32.766,0.28500000000000003,0.34700000000000003,2.849,2018.2857666015625,809.9833374023438,28.740768432617188,,False,
1783703782.4338326,2026-07-10T10:16:22,214023,20260710_101616,,,,,,arming,,,,,,,,,False,0.024057481437921524,0.004090812522917986,1.0019724369049072,0.0024446831084787846,0.04156776890158653,0.030070893466472626,0.0,1.0,66.0,24.0,0.024,0.0022654503118246794,0.00025275471853092313,0.022814089432358742,0.031014995649456978,0.003925662953406572,0.0020361708011478186,0.020692262798547745,0.15853948891162872,0.0015670012217015028,0.022814089432358742,0.0019489293918013573,3.0387259357667062e-06,0.00023826584219932556,3.695014715194702,10.0,0.0,0.0,0.0,0.0,0.0,0.28,32.766,0.28500000000000003,0.34700000000000003,2.849,2018.2857666015625,809.9833374023438,28.740768432617188,,False,
1783703782.4440062,2026-07-10T10:16:22,214035,20260710_101616,,,,,,arming,,,,,,,,,False,0.022784097120165825,0.004932551644742489,1.0015244483947754,0.10351671278476715,-0.00843261182308197,0.11345385760068893,1.0,1.0,66.0,24.0,0.024,0.0028607684653252363,-7.345233461819589e-05,0.02286677248775959,0.03479759395122528,0.0004639693652279675,0.0023064797278493643,0.020692262798547745,0.15853948891162872,0.0015670012217015028,0.022814089432358742,0.0019489293918013573,3.0387259357667062e-06,0.00023826584219932556,3.695014715194702,10.0,0.0,0.0,0.0,0.0,0.0,0.28,32.766,0.28500000000000003,0.34700000000000003,2.849,2018.2857666015625,809.9833374023438,28.740768432617188,,False,
1783703782.454172,2026-07-10T10:16:22,214043,20260710_101616,,,,,,arming,,,,,,,,,False,0.022312365472316742,0.004306889604777098,0.9990191459655762,0.11106786131858826,0.031438011676073074,-0.027464350685477257,-1.0,3.0,64.0,24.0,0.024,0.0028607684653252363,-7.345233461819589e-05,0.02286677248775959,0.03479759395122528,0.0004639693652279675,0.0023064797278493643,0.12331480532884598,0.16709060966968536,0.0006428719498217106,0.022814089432358742,0.0019489293918013573,3.0387259357667062e-06,0.00023826584219932556,3.695014715194702,10.0,0.0,0.0,0.0,0.0,0.0,0.28,32.766,0.28500000000000003,0.34700000000000003,2.849,2018.2857666015625,809.9833374023438,28.740768432617188,,False,
1783703782.4643574,2026-07-10T10:16:22,214053,20260710_101616,,,,,,arming,,,,,,,,,False,0.02252795733511448,0.005079054739326239,0.9970892071723938,-0.0730915442109108,-0.15070079267024994,-0.01899503357708454,-255.0,3.0,64.0,24.0,0.024,0.0028607684653252363,-7.345233461819589e-05,0.02286677248775959,0.03479759395122528,0.0004639693652279675,0.0023064797278493643,0.12331480532884598,0.16709060966968536,0.0006428719498217106,0.022814089432358742,0.0019489293918013573,3.0387259357667062e-06,0.00023826584219932556,3.695014715194702,10.0,0.0,0.0,0.0,0.0,0.0,0.28,32.766,0.28500000000000003,0.34700000000000003,2.849,2018.2857666015625,809.9833374023438,28.740768432617188,,False,
1783703782.4745421,2026-07-10T10:16:22,214063,20260710_101616,,,,,,arming,,,,,,,,,False,0.025000186637043953,0.004595628939568996,1.0010737180709839,-0.43535882234573364,-0.19368356466293335,0.1566152721643448,0.0,0.0,73.0,24.0,0.024,0.0026080687530338764,-9.567644156049937e-05,0.02341591566801071,0.029553238302469254,0.0005253130220808089,0.004775372799485922,0.1355690360069275,0.3718021810054779,0.0009702688548713923,0.023462466895580292,0.004330187104642391,3.265420218667714e-06,0.00025092079886235297,3.7002933025360107,10.0,0.0,0.0,0.0,0.0,0.0,32.766,32.766,0.28500000000000003,0.34700000000000003,2.849,2018.3841552734375,809.9744262695312,28.74891471862793,,False,
1783703782.4847047,2026-07-10T10:16:22,214075,20260710_101616,,,,,,arming,,,,,,,,,False,0.025180676952004433,0.0013929641572758555,0.999378502368927,-0.1142236739397049,-0.19704295694828033,-0.0666925236582756,255.0,0.0,73.0,24.0,0.024,0.0021244853269308805,0.0002149674401152879,0.023541443049907684,0.02302420698106289,0.003596779191866517,0.0048857154324650764,0.1355690360069275,0.3718021810054779,0.0009702688548713923,0.023462466895580292,0.004330187104642391,3.265420218667714e-06,0.00025092079886235297,3.7002933025360107,10.0,0.0,0.0,0.0,0.0,0.0,32.766,32.766,0.28500000000000003,0.34700000000000003,2.849,2018.3841552734375,809.9744262695312,28.74891471862793,,False,
1783703782.4948668,2026-07-10T10:16:22,214083,20260710_101616,,,,,,arming,,,,,,,,,False,0.02259213849902153,0.0036526366602629423,0.9977437853813171,0.12430326640605927,0.037328045815229416,0.24646572768688202,-256.0,2.0,78.0,24.0,0.024,0.0021244853269308805,0.0002149674401152879,0.023541443049907684,0.02302420698106289,0.003596779191866517,0.0048857154324650764,0.0742325484752655,0.5928531289100647,0.0020655025728046894,0.023462466895580292,0.004330187104642391,3.265420218667714e-06,0.00025092079886235297,3.7002933025360107,10.0,0.0,0.0,0.0,0.0,0.0,32.766,32.766,0.28500000000000003,0.34700000000000003,2.849,2018.3841552734375,809.9744262695312,28.74891471862793,,False,
1783703782.5050173,2026-07-10T10:16:22,214095,20260710_101616,,,,,,arming,,,,,,,,,False,0.024578500539064407,0.004151165951043367,0.9990889430046082,0.05953440070152283,-0.07273576408624649,-0.024127047508955002,0.0,2.0,53.0,24.0,0.024,0.0010258379625156522,0.0001785543718142435,0.023804746568202972,0.012260624207556248,0.0029865631368011236,0.0055641233921051025,0.0742325484752655,0.5928531289100647,0.0020655025728046894,0.023462466895580292,0.004330187104642391,3.265420218667714e-06,0.00025092079886235297,3.7002933025360107,10.0,0.0,0.0,0.0,0.0,0.0,32.766,32.766,0.28500000000000003,0.34700000000000003,2.849,2018.3841552734375,809.9744262695312,28.74891471862793,,False,
1783703782.5164893,2026-07-10T10:16:22,214103,20260710_101616,,,,,,arming,,,,,,,,,False,0.024695133790373802,0.004394048824906349,1.0002623796463013,-0.09958838671445847,-0.058527182787656784,-0.2091117948293686,0.0,-2.0,65.0,24.0,0.024,0.0010258379625156522,0.0001785543718142435,0.023804746568202972,0.012260624207556248,0.0029865631368011236,0.0055641233921051025,0.09307941794395447,0.8738740682601929,0.0015540685271844268,0.023462466895580292,0.004330187104642391,3.265420218667714e-06,0.00025092079886235297,3.7002933025360107,10.0,0.0,0.0,0.0,0.0,0.0,32.766,32.766,0.28500000000000003,0.34700000000000003,2.849,2018.3841552734375,809.9744262695312,28.74891471862793,,False,
1783703782.5266638,2026-07-10T10:16:22,214118,20260710_101616,,,,,,arming,,,,,,,,,False,0.02431572787463665,0.004625238478183746,1.0013314485549927,-0.01867605559527874,-0.24821515381336212,0.26279130578041077,0.0,0.0,60.0,24.0,0.024,0.001711052842438221,0.0001970640296349302,0.023916255682706833,0.017485791817307472,0.0031360872089862823,0.005610424559563398,0.1003217026591301,0.8075509667396545,0.0008786251419223845,0.023916255682706833,0.005357934162020683,3.3870767310872907e-06,0.00023244514886755496,3.695014715194702,10.0,0.0,0.0,0.0,0.0,0.0,32.766,32.766,0.279,0.339,2.839,2018.3841552734375,809.9744262695312,28.74891471862793,,False,
1783703782.536835,2026-07-10T10:16:22,214123,20260710_101616,,,,,,arming,,,,,,,,,False,0.021844524890184402,0.004729925654828548,1.0000139474868774,0.1862475872039795,-0.1314287930727005,-0.04470723867416382,0.0,0.0,69.0,24.0,0.024,0.001711052842438221,0.0001970640296349302,0.023916255682706833,0.017485791817307472,0.0031360872089862823,0.005610424559563398,0.1003217026591301,0.8075509667396545,0.0008786251419223845,0.023916255682706833,0.005357934162020683,3.3870767310872907e-06,0.00023244514886755496,3.695014715194702,10.0,0.0,0.0,0.0,0.0,0.0,32.766,32.766,0.279,0.339,2.839,2018.3841552734375,809.9744262695312,28.74891471862793,,False,
1783703782.547008,2026-07-10T10:16:22,214138,20260710_101616,,,,,,arming,,,,,,,,,False,0.024024980142712593,0.0024814277421683073,0.9986981153488159,0.18685030937194824,0.013375431299209595,0.04196605831384659,0.0,0.0,69.0,24.0,0.024,0.00207899184897542,0.00026509654708206654,0.024030452594161034,0.019251717254519463,0.003664889372885227,0.005746312905102968,0.10188363492488861,0.8065321445465088,0.002279127947986126,0.023916255682706833,0.005357934162020683,3.3870767310872907e-06,0.00023244514886755496,3.695014715194702,10.0,0.0,0.0,0.0,0.0,0.0,32.766,32.766,0.279,0.339,2.839,2018.3841552734375,809.9744262695312,28.74891471862793,,False,
1783703782.557186,2026-07-10T10:16:22,214143,20260710_101616,,,,,,arming,,,,,,,,,False,0.024039724841713905,0.0024754307232797146,0.9989600777626038,-0.1282396912574768,-0.5647901892662048,0.04079201817512512,0.0,0.0,67.0,23.0,0.023,0.00207899184897542,0.00026509654708206654,0.024030452594161034,0.019251717254519463,0.003664889372885227,0.005746312905102968,0.10188363492488861,0.8065321445465088,0.002279127947986126,0.023916255682706833,0.005357934162020683,3.3870767310872907e-06,0.00023244514886755496,3.695014715194702,10.0,0.0,0.0,0.0,0.0,0.0,32.766,32.766,0.279,0.339,2.839,2018.3841552734375,809.9744262695312,28.74891471862793,,False,
1783703782.5673761,2026-07-10T10:16:22,214159,20260710_101616,,,,,,arming,,,,,,,,,False,0.023858875036239624,0.00196905923075974,1.0009294748306274,0.076304130256176,0.04601369425654411,0.16415388882160187,0.0,0.0,62.0,23.0,0.023,0.0024769927840679884,0.00033889958285726607,0.02367517724633217,0.021174946799874306,0.0037831247318536043,0.0031502717174589634,0.10201892256736755,0.8067800998687744,0.0024782787077128887,0.02370721846818924,0.0029403259977698326,3.62468063030974e-06,0.00022278791584540159,3.695014715194702,10.0,0.0,0.0,0.0,0.0,0.0,32.766,32.766,0.279,0.339,2.839,2018.3841552734375,809.9744262695312,28.74891471862793,,False,
1783703782.5775511,2026-07-10T10:16:22,214163,20260710_101616,,,,,,arming,,,,,,,,,False,0.024389242753386497,0.0034362394362688065,1.0003787279129028,-0.1403733193874359,0.27427515387535095,-0.06833101063966751,0.0,-1.0,67.0,23.0,0.023,0.0024769927840679884,0.00033889958285726607,0.02367517724633217,0.021174946799874306,0.0037831247318536043,0.0031502717174589634,0.10201892256736755,0.8067800998687744,0.0024782787077128887,0.02370721846818924,0.0029403259977698326,3.62468063030974e-06,0.00022278791584540159,3.7002933025360107,10.0,0.0,0.0,0.0,0.0,0.0,0.28600000000000003,32.766,0.279,0.339,2.839,2018.2911376953125,809.9824829101562,28.76262664794922,,False,
1783703782.5877185,2026-07-10T10:16:22,214178,20260710_101616,,,,,,arming,,,,,,,,,False,0.023378346115350723,0.005377993918955326,0.999920129776001,0.09071502834558487,-0.005656022112816572,-0.15448161959648132,0.0,-1.0,67.0,23.0,0.023,0.002884818473830819,0.00033008723403327167,0.023740502074360847,0.022887669503688812,0.00338825024664402,0.0033042607828974724,0.11280610412359238,0.8080970048904419,0.0028621554374694824,0.02370721846818924,0.0029403259977698326,3.62468063030974e-06,0.00022278791584540159,3.7002933025360107,10.0,0.0,0.0,0.0,0.0,0.0,0.28600000000000003,32.766,0.279,0.339,2.839,2018.2911376953125,809.9824829101562,28.76262664794922,,False,
1783703782.5978732,2026-07-10T10:16:22,214183,20260710_101616,,,,,,arming,,,,,,,,,False,0.02256118133664131,0.0033933843951672316,1.0015939474105835,0.19701281189918518,0.19927138090133667,-0.015830017626285553,0.0,0.0,72.0,23.0,0.023,0.002884818473830819,0.00033008723403327167,0.023740502074360847,0.022887669503688812,0.00338825024664402,0.0033042607828974724,0.11280610412359238,0.8080970048904419,0.0028621554374694824,0.02370721846818924,0.0029403259977698326,3.62468063030974e-06,0.00022278791584540159,3.7002933025360107,10.0,0.0,0.0,0.0,0.0,0.0,0.28600000000000003,32.766,0.279,0.339,2.839,2018.2911376953125,809.9824829101562,28.76262664794922,,False,
1783703782.6080227,2026-07-10T10:16:22,214198,20260710_101616,,,,,,arming,,,,,,,,,False,0.02219436690211296,0.005229162983596325,1.0019656419754028,0.3340059220790863,0.09232677519321442,-0.237138569355011,0.0,0.0,58.0,22.0,0.022,0.0008778313058428466,0.00031156925251707435,0.023011814802885056,0.008084726519882679,0.0032718670554459095,-0.0009409264312125742,0.1238827109336853,1.0806841850280762,0.0027507368940860033,0.02370721846818924,0.0029403259977698326,3.62468063030974e-06,0.00022278791584540159,3.7002933025360107,10.0,0.0,0.0,0.0,0.0,0.0,0.28600000000000003,32.766,0.279,0.339,2.839,2018.2911376953125,809.9824829101562,28.76262664794922,,False,
1783703782.6182039,2026-07-10T10:16:22,214209,20260710_101616,,,,,,arming,,,,,,,,,False,0.023102495819330215,0.005010210908949375,0.9989791512489319,-0.3077320158481598,-0.15534184873104095,-0.015219507738947868,0.0,-3.0,70.0,22.0,0.022,0.0008778313058428466,0.00031156925251707435,0.023011814802885056,0.008084726519882679,0.0032718670554459095,-0.0009409264312125742,0.1238827109336853,1.0806841850280762,0.0027507368940860033,0.02300032414495945,-0.0010876108426600695,3.5160530842404114e-06,0.00020168475748505443,3.7002933025360107,10.0,0.0,0.0,0.0,0.0,0.0,0.28600000000000003,32.766,0.279,0.339,2.839,2018.2911376953125,809.9824829101562,28.76262664794922,,False,
1783703782.6285625,2026-07-10T10:16:22,214218,20260710_101616,,,,,,arming,,,,,,,,,False,0.02322263829410076,0.005031068809330463,0.9989141821861267,-0.027581125497817993,0.24011622369289398,0.0903158113360405,0.0,0.0,65.0,22.0,0.022,0.00230520055629313,0.00030608312226831913,0.02300032414495945,0.016950396820902824,0.0033725732937455177,-0.0007990997401066124,0.13239805400371552,0.9492952823638916,0.002973373746499419,0.02300032414495945,-0.0010876108426600695,3.5160530842404114e-06,0.00020168475748505443,3.695014715194702,10.0,0.0,0.0,0.0,0.0,0.0,0.28600000000000003,32.766,0.279,0.342,2.853,2018.2911376953125,809.9824829101562,28.76262664794922,,False,
1783703782.6387599,2026-07-10T10:16:22,214231,20260710_101616,,,,,,arming,,,,,,,,,False,0.024019664153456688,0.0035273146349936724,0.9987006187438965,-0.27918314933776855,0.24071025848388672,-0.005574789363890886,1.0,-3.0,70.0,22.0,0.022,0.00230520055629313,0.00030608312226831913,0.02300032414495945,0.016950396820902824,0.0033725732937455177,-0.0007990997401066124,0.13239805400371552,0.9492952823638916,0.002973373746499419,0.02300032414495945,-0.0010876108426600695,3.5160530842404114e-06,0.00020168475748505443,3.695014715194702,10.0,0.0,0.0,0.0,0.0,0.0,0.28600000000000003,32.766,0.279,0.342,2.853,2018.2911376953125,809.9824829101562,28.76262664794922,,False,
1783703782.648935,2026-07-10T10:16:22,214238,20260710_101616,,,,,,arming,,,,,,,,,False,0.024019664153456688,0.0035273146349936724,0.9987006187438965,-0.27918314933776855,0.24071025848388672,-0.005574789363890886,-1.0,3.0,70.0,22.0,0.022,0.0019029058748856187,0.00021866174938622862,0.023002948611974716,0.013447800651192665,0.0029365241061896086,-0.0009369544568471611,0.1450318992137909,1.0239359140396118,0.002085781190544367,0.02300032414495945,-0.0010876108426600695,3.5160530842404114e-06,0.00020168475748505443,3.695014715194702,10.0,0.0,0.0,0.0,0.0,0.0,0.28600000000000003,32.766,0.279,0.342,2.853,2018.2911376953125,809.9824829101562,28.76262664794922,,False,
1783703782.6591263,2026-07-10T10:16:22,214243,20260710_101616,,,,,,arming,,,,,,,,,False,0.02660176530480385,0.004184555262327194,1.0000483989715576,0.012301350012421608,0.11634045094251633,0.14499615132808685,0.0,1.0,58.0,23.0,0.023,0.0019029058748856187,0.00021866174938622862,0.023002948611974716,0.013447800651192665,0.0029365241061896086,-0.0009369544568471611,0.1450318992137909,1.0239359140396118,0.002085781190544367,0.02300032414495945,-0.0010876108426600695,3.5160530842404114e-06,0.00020168475748505443,3.695014715194702,10.0,0.0,0.0,0.0,0.0,0.0,0.28600000000000003,32.766,0.279,0.342,2.853,2018.2911376953125,809.9824829101562,28.76262664794922,,False,
1783703782.6693316,2026-07-10T10:16:22,214260,20260710_101616,,,,,,arming,,,,,,,,,False,0.024799125269055367,0.0047730994410812855,1.0022259950637817,-0.06453430652618408,0.29385530948638916,0.08339156210422516,1.0,1.0,58.0,23.0,0.023,0.002838451648131013,-0.00023262464674189687,0.022985924035310745,0.019005073234438896,0.00010462132922839373,-0.0009617544710636139,0.18949618935585022,0.9573799967765808,0.002642047358676791,0.02297762595117092,-0.0010290492791682482,3.582529643608723e-06,0.0001982741814572364,3.7002933025360107,10.0,0.0,0.0,0.0,0.0,0.0,0.28600000000000003,32.766,0.279,0.342,2.853,2018.2911376953125,809.9824829101562,28.76262664794922,,False,
1783703782.6794956,2026-07-10T10:16:22,214271,20260710_101616,,,,,,arming,,,,,,,,,False,0.02482529543340206,0.004342803731560707,1.0018157958984375,0.2303237020969391,-0.13707837462425232,0.12276224792003632,-1.0,2.0,67.0,23.0,0.023,0.002838451648131013,-0.00023262464674189687,0.022985924035310745,0.019005073234438896,0.00010462132922839373,-0.0009617544710636139,0.18949618935585022,0.9573799967765808,0.002642047358676791,0.02297762595117092,-0.0010290492791682482,3.582529643608723e-06,0.0001982741814572364,3.7002933025360107,10.0,0.0,0.0,0.0,0.0,0.0,32.766,32.766,0.279,0.342,2.853,2018.318603515625,809.98046875,28.771635055541992,,False,
1783703782.6896584,2026-07-10T10:16:22,214281,20260710_101616,,,,,,arming,,,,,,,,,False,0.024224547669291496,0.0035038897767663,0.9993689656257629,-0.16323038935661316,0.07224034518003464,-0.06520859897136688,2.0,2.0,67.0,23.0,0.023,0.002531500533223152,-0.0006222042138688266,0.02298136241734028,0.016587037593126297,-0.0019983712118119,-0.0004440192424226552,0.22595559060573578,1.0084599256515503,0.0022790851071476936,0.02297762595117092,-0.0010290492791682482,3.582529643608723e-06,0.0001982741814572364,3.7002933025360107,10.0,0.0,0.0,0.0,0.0,0.0,32.766,32.766,0.279,0.342,2.853,2018.318603515625,809.98046875,28.771635055541992,,False,
1783703782.6998243,2026-07-10T10:16:22,214291,20260710_101616,,,,,,arming,,,,,,,,,False,0.02557707205414772,0.002937727142125368,1.0000895261764526,0.10046081244945526,-0.5227482914924622,-0.05038239806890488,254.0,-2.0,69.0,23.0,0.023,0.002531500533223152,-0.0006222042138688266,0.02298136241734028,0.016587037593126297,-0.0019983712118119,-0.0004440192424226552,0.22595559060573578,1.0084599256515503,0.0022790851071476936,0.02297762595117092,-0.0010290492791682482,3.582529643608723e-06,0.0001982741814572364,3.7002933025360107,10.0,0.0,0.0,0.0,0.0,0.0,32.766,32.766,0.279,0.342,2.853,2018.318603515625,809.98046875,28.771635055541992,,False,
1783703782.710009,2026-07-10T10:16:22,214301,20260710_101616,,,,,,arming,,,,,,,,,False,0.024468587711453438,0.005671716295182705,0.9995608329772949,-0.014954845421016216,-0.056241486221551895,0.0639105960726738,0.0,1.0,55.0,22.0,0.022,0.0005976555985398591,7.99243280198425e-05,0.0225505568087101,0.00480981869623065,0.0021852313075214624,-0.002587126335129142,0.1664837747812271,1.1888751983642578,0.00430242158472538,0.02297762595117092,-0.0010290492791682482,3.582529643608723e-06,0.0001982741814572364,3.7002933025360107,10.0,0.0,0.0,0.0,0.0,0.0,32.766,32.766,0.279,0.342,2.853,2018.318603515625,809.98046875,28.771635055541992,,False,
1783703782.7201674,2026-07-10T10:16:22,214311,20260710_101616,,,,,,arming,,,,,,,,,False,0.024468587711453438,0.005671716295182705,0.9995608329772949,-0.014954845421016216,-0.056241486221551895,0.0639105960726738,0.0,-1.0,69.0,22.0,0.022,0.0005976555985398591,7.99243280198425e-05,0.0225505568087101,0.00480981869623065,0.0021852313075214624,-0.002587126335129142,0.1664837747812271,1.1888751983642578,0.00430242158472538,0.02250133454799652,-0.0026582186110317707,3.417949073991622e-06,0.0001875226735137403,3.695014715194702,10.0,0.0,0.0,0.0,0.0,0.0,32.766,32.766,0.281,0.34600000000000003,2.841,2018.318603515625,809.98046875,28.771635055541992,,False,
1783703782.7303329,2026-07-10T10:16:22,214321,20260710_101616,,,,,,arming,,,,,,,,,False,0.02522597275674343,0.0025513896252959967,0.9998862147331238,-0.08542591333389282,0.36057621240615845,-0.20874668657779694,0.0,0.0,61.0,22.0,0.022,0.0009663344826549292,8.615829574409872e-05,0.02250133454799652,0.007155251689255238,0.002264656126499176,-0.002505815587937832,0.17081032693386078,1.170609474182129,0.004706657025963068,0.02250133454799652,-0.0026582186110317707,3.417949073991622e-06,0.0001875226735137403,3.695014715194702,10.0,0.0,0.0,0.0,0.0,0.0,32.766,32.766,0.281,0.34600000000000003,2.841,2018.318603515625,809.98046875,28.771635055541992,,False,
1783703782.7404876,2026-07-10T10:16:22,214331,20260710_101616,,,,,,arming,,,,,,,,,False,0.02261272631585598,0.004811129067093134,1.000309705734253,0.0435466393828392,-0.006856143940240145,-0.18620528280735016,0.0,-4.0,61.0,22.0,0.022,0.0009663344826549292,8.615829574409872e-05,0.02250133454799652,0.007155251689255238,0.002264656126499176,-0.002505815587937832,0.17081032693386078,1.170609474182129,0.004706657025963068,0.02250133454799652,-0.0026582186110317707,3.417949073991622e-06,0.0001875226735137403,3.695014715194702,10.0,0.0,0.0,0.0,0.0,0.0,32.766,32.766,0.281,0.34600000000000003,2.841,2018.318603515625,809.98046875,28.771635055541992,,False,
1783703782.7506244,2026-07-10T10:16:22,214341,20260710_101616,,,,,,arming,,,,,,,,,False,0.023752780631184578,0.0036576210986822844,0.9999986290931702,0.08466491103172302,-0.06625117361545563,-0.08146672695875168,0.0,-4.0,74.0,22.0,0.022,0.0011907964944839478,5.5624113883823156e-05,0.022467149421572685,0.008385206572711468,0.0019404323538765311,-0.002310345182195306,0.176717609167099,1.164995789527893,0.0034965320955961943,0.02250133454799652,-0.0026582186110317707,3.417949073991622e-06,0.0001875226735137403,3.695014715194702,10.0,0.0,0.0,0.0,0.0,0.0,32.766,32.766,0.281,0.34600000000000003,2.841,2018.318603515625,809.98046875,28.771635055541992,,False,
1783703782.7607732,2026-07-10T10:16:22,214351,20260710_101616,,,,,,arming,,,,,,,,,False,0.02224959246814251,0.001238547032698989,1.0016331672668457,-0.07102438062429428,0.04855090379714966,-0.09053951501846313,0.0,0.0,56.0,22.0,0.022,0.0011907964944839478,5.5624113883823156e-05,0.022467149421572685,0.008385206572711468,0.0019404323538765311,-0.002310345182195306,0.176717609167099,1.164995789527893,0.0034965320955961943,0.02250133454799652,-0.0026582186110317707,3.417949073991622e-06,0.0001875226735137403,3.695014715194702,10.0,0.0,0.0,0.0,0.0,0.0,32.766,32.766,0.281,0.34600000000000003,2.841,2018.318603515625,809.98046875,28.771635055541992,,False,
1783703782.7709486,2026-07-10T10:16:22,214360,20260710_101616,,,,,,arming,,,,,,,,,False,0.02224959246814251,0.001238547032698989,1.0016331672668457,-0.07102438062429428,0.04855090379714966,-0.09053951501846313,0.0,0.0,56.0,22.0,0.022,0.001362979761324823,9.687061537988484e-05,0.022213781252503395,0.008944223634898663,0.0021211644634604454,-0.003175557591021061,0.17775556445121765,1.1628062725067139,0.0029808676335960627,0.022183092311024666,-0.0031532617285847664,3.473693141131662e-06,0.00019056053133681417,3.7002933025360107,10.0,0.0,0.0,0.0,0.0,0.0,32.766,32.766,0.281,0.34600000000000003,2.841,2018.318603515625,809.98046875,28.771635055541992,,False,
1783703782.7810965,2026-07-10T10:16:22,214371,20260710_101616,,,,,,arming,,,,,,,,,False,0.02378617785871029,0.004014819860458374,1.003885269165039,-0.10996725410223007,0.11554492264986038,0.03211502358317375,1.0,-3.0,70.0,22.0,0.022,0.001362979761324823,9.687061537988484e-05,0.022213781252503395,0.008944223634898663,0.0021211644634604454,-0.003175557591021061,0.17775556445121765,1.1628062725067139,0.0029808676335960627,0.022183092311024666,-0.0031532617285847664,3.473693141131662e-06,0.00019056053133681417,3.7002933025360107,10.0,0.0,0.0,0.0,0.0,0.0,32.766,32.766,0.281,0.34600000000000003,2.841,2018.318603515625,809.97998046875,28.78084373474121,,False,
1783703782.7912405,2026-07-10T10:16:22,214381,20260710_101616,,,,,,arming,,,,,,,,,False,0.021252760663628578,0.0032772852573543787,1.0012989044189453,0.07497234642505646,0.004260566085577011,0.10670498758554459,-1.0,-3.0,70.0,22.0,0.022,0.0015690872678533196,7.294765237020329e-05,0.022163281217217445,0.009578453376889229,0.001669116783887148,-0.002572278492152691,0.18196415901184082,1.1617016792297363,0.0028547963593155146,0.022183092311024666,-0.0031532617285847664,3.473693141131662e-06,0.00019056053133681417,3.7002933025360107,10.0,0.0,0.0,0.0,0.0,0.0,32.766,32.766,0.281,0.34600000000000003,2.841,2018.318603515625,809.97998046875,28.78084373474121,,False,
1783703782.8013878,2026-07-10T10:16:22,214393,20260710_101616,,,,,,arming,,,,,,,,,False,0.024606885388493538,0.003990497440099716,1.0008686780929565,-0.07077068835496902,-0.022108599543571472,-0.1692214161157608,0.0,0.0,58.0,23.0,0.023,0.0015690872678533196,7.294765237020329e-05,0.022163281217217445,0.009578453376889229,0.001669116783887148,-0.002572278492152691,0.18196415901184082,1.1617016792297363,0.0028547963593155146,0.022183092311024666,-0.0031532617285847664,3.473693141131662e-06,0.00019056053133681417,3.7002933025360107,10.0,0.0,0.0,0.0,0.0,0.0,32.766,32.766,0.281,0.34600000000000003,2.841,2018.318603515625,809.97998046875,28.78084373474121,,False,
1783703782.811534,2026-07-10T10:16:22,214403,20260710_101616,,,,,,arming,,,,,,,,,False,0.02322467416524887,0.005750487558543682,1.0008207559585571,-0.06382064521312714,-0.2499336302280426,0.1664239764213562,0.0,0.0,70.0,23.0,0.023,0.0012318643275648355,7.487108814530075e-05,0.02249986305832863,0.007216698490083218,0.0015624917577952147,-6.514948472613469e-05,0.18295009434223175,1.1936708688735962,0.0045140646398067474,0.022183092311024666,-0.0031532617285847664,3.473693141131662e-06,0.00019056053133681417,3.7002933025360107,10.0,0.0,0.0,0.0,0.0,0.0,32.766,32.766,0.281,0.34600000000000003,2.841,2018.318603515625,809.97998046875,28.78084373474121,,False,
1783703782.8216746,2026-07-10T10:16:22,214413,20260710_101616,,,,,,arming,,,,,,,,,False,0.025449074804782867,0.005165398120880127,1.0009177923202515,-0.12834474444389343,-0.23600831627845764,-0.018586592748761177,0.0,0.0,65.0,23.0,0.023,0.0012318643275648355,7.487108814530075e-05,0.02249986305832863,0.007216698490083218,0.0015624917577952147,-6.514948472613469e-05,0.18295009434223175,1.1936708688735962,0.0045140646398067474,0.0225009024143219,-9.134419087786227e-06,3.3422109027014812e-06,0.00018455252575222403,3.695014715194702,10.0,0.0,0.0,0.0,0.0,0.0,32.766,32.766,0.28200000000000003,0.34,2.833,2018.318603515625,809.97998046875,28.78084373474121,,False,
1783703782.8318262,2026-07-10T10:16:22,214423,20260710_101616,,,,,,arming,,,,,,,,,False,0.02491914853453636,0.003376549109816551,1.0013980865478516,0.11683893203735352,0.14267736673355103,0.0738026350736618,0.0,-3.0,65.0,23.0,0.023,0.001382653135806322,0.00010922235378529876,0.0225009024143219,0.007824944332242012,0.0019511798163875937,0.0001599330425960943,0.1826547533273697,1.1922192573547363,0.005188551731407642,0.0225009024143219,-9.134419087786227e-06,3.3422109027014812e-06,0.00018455252575222403,3.695014715194702,10.0,0.0,0.0,0.0,0.0,0.0,32.766,32.766,0.28200000000000003,0.34,2.833,2018.318603515625,809.97998046875,28.78084373474121,,False,
