pc_time_s,pc_time_iso,cf_time_ms,session_id,motif_id,motif_type,motif_phase,rep_index,motif_param_json,flight_phase,cmd_vx_m_s,cmd_vy_m_s,cmd_yaw_rate_deg_s,cmd_height_m,cmd_vx_raw_m_s,cmd_vy_raw_m_s,cmd_yaw_rate_raw_deg_s,cmd_height_raw_m,safety_override_active,acc_x_g,acc_y_g,acc_z_g,gyro_x_dps,gyro_y_dps,gyro_z_dps,flow_delta_x_px,flow_delta_y_px,flow_squal,zrange_mm,zrange_m,x_m,y_m,z_m,vx_m_s,vy_m_s,vz_m_s,roll_deg,pitch_deg,yaw_deg,kalman_state_z_m,kalman_state_pz,kalman_var_z,kalman_var_pz,battery_v,battery_level_pct,pm_state,motor_m1,motor_m2,motor_m3,motor_m4,range_front_m,range_back_m,range_left_m,range_right_m,range_up_m,baro_asl_m,baro_pressure_hpa,baro_temp_c,safety_flag,should_land,event
1783648246.7926245,2026-07-09T18:50:46,,20260709_185042,,,,,,ground_idle,,,,,,,,,False,,,,,,,,,,,,,,,,,,,,,,,,,,,,,,,,,,,,,,,,,False,
1783648246.8029795,2026-07-09T18:50:46,,20260709_185042,,,,,,ground_idle,,,,,,,,,False,,,,,,,,,,,,,,,,,,,,,,,,,,,,,,,,,,,,,,,,,False,
1783648246.8130977,2026-07-09T18:50:46,15067,20260709_185042,,,,,,ground_idle,,,,,,,,,False,0.017994606867432594,-0.008374697528779507,1.0002696514129639,-0.05603034049272537,0.04745936766266823,0.174447163939476,0.0,0.0,54.0,0.0,0.0,,,,,,,,,,,,,,,,,,,,,,,,,,,,,,False,
1783648246.823201,2026-07-09T18:50:46,15081,20260709_185042,,,,,,ground_idle,,,,,,,,,False,0.017558587715029716,-0.010211868211627007,1.0006685256958008,-0.03798342123627663,-0.14859500527381897,0.14131687581539154,1.0,0.0,50.0,0.0,0.0,-0.6570286750793457,1.7314358949661255,0.0001688771299086511,0.0034806954208761454,0.0006021175067871809,0.0015744862612336874,-0.4651041030883789,0.9129621982574463,3.9268574714660645,,,,,,,,,,,,,,,,,,,,,False,
1783648246.8333054,2026-07-09T18:50:46,15087,20260709_185042,,,,,,ground_idle,,,,,,,,,False,0.01823846437036991,-0.012270687147974968,0.9998279809951782,-0.4080623686313629,0.02937842719256878,0.19265450537204742,4.0,4.0,26.0,0.0,0.0,-0.6570286750793457,1.7314358949661255,0.0001688771299086511,0.0034806954208761454,0.0006021175067871809,0.0015744862612336874,-0.4651041030883789,0.9129621982574463,3.9268574714660645,,,,,,,,,,,,,,,,,,,,,False,
1783648246.8434057,2026-07-09T18:50:46,15101,20260709_185042,,,,,,ground_idle,,,,,,,,,False,0.019100073724985123,-0.007899954915046692,1.0003423690795898,0.13568750023841858,-0.041114334017038345,-0.37365591526031494,0.0,0.0,28.0,0.0,0.0,-0.6579460501670837,1.7303707599639893,0.0001247213367605582,-0.0009701046510599554,-0.00529073690995574,0.001269589294679463,-0.42669156193733215,0.954707682132721,3.921149969100952,,,,,,,,,,,,,,,,,,,,,False,
1783648246.853582,2026-07-09T18:50:46,15114,20260709_185042,,,,,,ground_idle,,,,,,,,,False,0.017111709341406822,-0.008085576817393303,1.001173734664917,-0.24874010682106018,-0.060471370816230774,0.12793569266796112,-3.0,-4.0,50.0,0.0,0.0,-0.6579460501670837,1.7303707599639893,0.0001247213367605582,-0.0009701046510599554,-0.00529073690995574,0.001269589294679463,-0.42669156193733215,0.954707682132721,3.921149969100952,0.00014713048585690558,0.0013377965660765767,3.1925299026625e-06,0.00018840251141227782,3.8111438751220703,20.0,0.0,0.0,0.0,0.0,0.0,32.766,32.766,32.766,32.766,32.766,,,,,False,
1783648246.8637385,2026-07-09T18:50:46,15126,20260709_185042,,,,,,ground_idle,,,,,,,,,False,0.017752356827259064,-0.009902330115437508,1.0011307001113892,-0.16973376274108887,-0.04532000049948692,0.05946294590830803,0.0,0.0,48.0,0.0,0.0,-0.6569398641586304,1.7311885356903076,0.0001622532436158508,0.004294399172067642,-0.0007846871740184724,0.0016139285871759057,-0.4595336616039276,0.9101247787475586,3.9127697944641113,0.00014713048585690558,0.0013377965660765767,3.1925299026625e-06,0.00018840251141227782,3.8111438751220703,20.0,0.0,0.0,0.0,0.0,0.0,32.766,32.766,32.766,32.766,32.766,,,,,False,
1783648246.8738666,2026-07-09T18:50:46,15127,20260709_185042,,,,,,ground_idle,,,,,,,,,False,0.017752356827259064,-0.009902330115437508,1.0011307001113892,-0.16973376274108887,-0.04532000049948692,0.05946294590830803,0.0,0.0,51.0,0.0,0.0,-0.6569398641586304,1.7311885356903076,0.0001622532436158508,0.004294399172067642,-0.0007846871740184724,0.0016139285871759057,-0.4595336616039276,0.9101247787475586,3.9127697944641113,0.00014713048585690558,0.0013377965660765767,3.1925299026625e-06,0.00018840251141227782,3.8111438751220703,20.0,0.0,0.0,0.0,0.0,0.0,32.766,32.766,32.766,32.766,32.766,,,,,False,
1783648246.8840237,2026-07-09T18:50:46,15146,20260709_185042,,,,,,ground_idle,,,,,,,,,False,0.018319102004170418,-0.007424444425851107,1.0009616613388062,-0.31232234835624695,-0.24478010833263397,0.09820791333913803,-2.0,0.0,51.0,0.0,0.0,-0.6569352149963379,1.731724739074707,0.00012604144285432994,0.00417185528203845,0.0016981872031465173,0.0015678234631195664,-0.48159030079841614,0.9086616635322571,3.9046647548675537,0.00014713048585690558,0.0013377965660765767,3.1925299026625e-06,0.00018840251141227782,3.8111438751220703,20.0,0.0,0.0,0.0,0.0,0.0,32.766,32.766,32.766,32.766,32.766,,,,,False,
1783648246.8941746,2026-07-09T18:50:46,15147,20260709_185042,,,,,,ground_idle,,,,,,,,,False,0.018319102004170418,-0.007424444425851107,1.0009616613388062,-0.31232234835624695,-0.24478010833263397,0.09820791333913803,1.0,0.0,47.0,0.0,0.0,-0.6569352149963379,1.731724739074707,0.00012604144285432994,0.00417185528203845,0.0016981872031465173,0.0015678234631195664,-0.48159030079841614,0.9086616635322571,3.9046647548675537,0.00014713048585690558,0.0013377965660765767,3.1925299026625e-06,0.00018840251141227782,3.8111438751220703,20.0,0.0,0.0,0.0,0.0,0.0,32.766,32.766,32.766,32.766,32.766,,,,,False,
1783648246.9043407,2026-07-09T18:50:46,15164,20260709_185042,,,,,,ground_idle,,,,,,,,,False,0.01745638996362686,-0.007473897188901901,0.9994596242904663,-0.16737082600593567,-0.34229952096939087,0.05333316698670387,-2.0,0.0,50.0,0.0,0.0,-0.6569781303405762,1.731982946395874,0.00015903127496130764,0.003977012820541859,0.003036113455891609,0.0016830101376399398,-0.4912340044975281,0.9132040143013,3.896913766860962,0.00015903127496130764,0.001639866386540234,3.3492128750367556e-06,0.0001953196042450145,3.8111438751220703,20.0,0.0,0.0,0.0,0.0,0.0,32.766,1.174,32.766,32.766,32.766,,,,,False,
1783648246.9145615,2026-07-09T18:50:46,15177,20260709_185042,,,,,,ground_idle,,,,,,,,,False,0.015863530337810516,-0.00842185877263546,0.9997644424438477,0.17579390108585358,0.3504706025123596,0.1963232159614563,4.0,0.0,50.0,0.0,0.0,-0.6569781303405762,1.731982946395874,0.00015903127496130764,0.003977012820541859,0.003036113455891609,0.0016830101376399398,-0.4912340044975281,0.9132040143013,3.896913766860962,0.00015903127496130764,0.001639866386540234,3.3492128750367556e-06,0.0001953196042450145,3.8111438751220703,20.0,0.0,0.0,0.0,0.0,0.0,32.766,1.174,32.766,32.766,32.766,2023.1959228515625,809.5467529296875,30.318857192993164,,False,
1783648246.9247031,2026-07-09T18:50:46,15186,20260709_185042,,,,,,ground_idle,,,,,,,,,False,0.0177680142223835,-0.008915124461054802,0.9990906715393066,-0.05539662018418312,0.44846656918525696,0.14254635572433472,4.0,0.0,50.0,0.0,0.0,-0.6569058895111084,1.7304210662841797,0.00019652694754768163,0.004038573708385229,-0.004896931815892458,0.0016433638520538807,-0.42934197187423706,0.9148690104484558,3.888549327850342,0.00015903127496130764,0.001639866386540234,3.3492128750367556e-06,0.0001953196042450145,3.8111438751220703,20.0,0.0,0.0,0.0,0.0,0.0,32.766,1.174,32.766,32.766,32.766,2023.1959228515625,809.5467529296875,30.318857192993164,,False,
1783648246.9348743,2026-07-09T18:50:46,15197,20260709_185042,,,,,,ground_idle,,,,,,,,,False,0.01820652186870575,-0.010193992406129837,0.9999966621398926,0.07564713805913925,0.05638136342167854,0.319625586271286,-1.0,-3.0,28.0,0.0,0.0,-0.6569058895111084,1.7304210662841797,0.00019652694754768163,0.004038573708385229,-0.004896931815892458,0.0016433638520538807,-0.42934197187423706,0.9148690104484558,3.888549327850342,0.00015903127496130764,0.001639866386540234,3.3492128750367556e-06,0.0001953196042450145,3.8111438751220703,20.0,0.0,0.0,0.0,0.0,0.0,32.766,1.174,32.766,32.766,32.766,2023.1959228515625,809.5467529296875,30.318857192993164,,False,
1783648246.9450057,2026-07-09T18:50:46,15206,20260709_185042,,,,,,ground_idle,,,,,,,,,False,0.01841144636273384,-0.00831602979451418,0.9995251297950745,-0.18671853840351105,0.04608026519417763,0.09368312358856201,-1.0,-3.0,28.0,0.0,0.0,-0.6569892764091492,1.7319594621658325,0.0001439207699149847,0.0035396921448409557,0.002789365826174617,0.0011478589149191976,-0.4901726543903351,0.9095984697341919,3.8838558197021484,0.00015903127496130764,0.001639866386540234,3.3492128750367556e-06,0.0001953196042450145,3.8111438751220703,20.0,0.0,0.0,0.0,0.0,0.0,32.766,1.174,32.766,32.766,32.766,2023.1959228515625,809.5467529296875,30.318857192993164,,False,
1783648246.9551382,2026-07-09T18:50:46,15217,20260709_185042,,,,,,ground_idle,,,,,,,,,False,0.018666908144950867,-0.008477884344756603,0.9988709092140198,-0.043844789266586304,0.23971563577651978,0.035347480326890945,0.0,3.0,48.0,0.0,0.0,-0.6569892764091492,1.7319594621658325,0.0001439207699149847,0.0035396921448409557,0.002789365826174617,0.0011478589149191976,-0.4901726543903351,0.9095984697341919,3.8838558197021484,0.0001553963520564139,0.0011054035276174545,3.2897291930567008e-06,0.00019063983927480876,3.8111438751220703,20.0,0.0,0.0,0.0,0.0,0.0,32.766,1.174,32.766,32.766,32.766,2023.1959228515625,809.5467529296875,30.318857192993164,,False,
1783648246.9652689,2026-07-09T18:50:46,15226,20260709_185042,,,,,,ground_idle,,,,,,,,,False,0.016288997605443,-0.007953149266541004,0.9981801509857178,0.008080358617007732,0.21202197670936584,0.307254821062088,0.0,3.0,48.0,0.0,0.0,-0.6577478051185608,1.7319252490997314,0.0001696029066806659,-6.207882688613608e-05,0.0023358094040304422,0.0011343479854986072,-0.48912882804870605,0.9397274851799011,3.8778696060180664,0.0001553963520564139,0.0011054035276174545,3.2897291930567008e-06,0.00019063983927480876,3.8111438751220703,20.0,0.0,0.0,0.0,0.0,0.0,32.766,1.174,32.766,32.766,32.766,2023.1959228515625,809.5467529296875,30.318857192993164,,False,
1783648246.9753973,2026-07-09T18:50:46,15237,20260709_185042,,,,,,ground_idle,,,,,,,,,False,0.017720118165016174,-0.008857980370521545,0.9997268319129944,-0.010664799250662327,-0.11238066852092743,-0.08295267075300217,0.0,0.0,47.0,0.0,0.0,-0.6577478051185608,1.7319252490997314,0.0001696029066806659,-6.207882688613608e-05,0.0023358094040304422,0.0011343479854986072,-0.48912882804870605,0.9397274851799011,3.8778696060180664,0.0001553963520564139,0.0011054035276174545,3.2897291930567008e-06,0.00019063983927480876,3.8111438751220703,20.0,0.0,0.0,0.0,0.0,0.0,32.766,1.174,32.766,32.766,32.766,2023.1959228515625,809.5467529296875,30.318857192993164,,False,
1783648246.985668,2026-07-09T18:50:46,15247,20260709_185042,,,,,,ground_idle,,,,,,,,,False,0.01819131150841713,-0.00803160946816206,1.0018980503082275,0.050484638661146164,0.03690509498119354,-0.06257278472185135,0.0,0.0,49.0,0.0,0.0,-0.6568899154663086,1.7314507961273193,0.00011295077274553478,0.004212523810565472,-0.00017397072224412113,0.0004961952799931169,-0.4668191373348236,0.9044327735900879,3.8708629608154297,0.0001553963520564139,0.0011054035276174545,3.2897291930567008e-06,0.00019063983927480876,3.8111438751220703,20.0,0.0,0.0,0.0,0.0,0.0,32.766,1.174,32.766,32.766,32.766,2023.1959228515625,809.5467529296875,30.318857192993164,,False,
1783648246.9958043,2026-07-09T18:50:46,15257,20260709_185042,,,,,,ground_idle,,,,,,,,,False,0.01685880869626999,-0.008484036661684513,1.00216805934906,-0.05625765770673752,-0.07128887623548508,0.04768363758921623,3.0,3.0,46.0,0.0,0.0,-0.6568899154663086,1.7314507961273193,0.00011295077274553478,0.004212523810565472,-0.00017397072224412113,0.0004961952799931169,-0.4668191373348236,0.9044327735900879,3.8708629608154297,0.0001553963520564139,0.0011054035276174545,3.2897291930567008e-06,0.00019063983927480876,3.8111438751220703,20.0,0.0,0.0,0.0,0.0,0.0,32.766,1.174,32.766,32.766,32.766,2023.1959228515625,809.5467529296875,30.318857192993164,,False,
1783648247.0059705,2026-07-09T18:50:47,15266,20260709_185042,,,,,,ground_idle,,,,,,,,,False,0.015613366849720478,-0.01036361139267683,0.9998044967651367,-0.17214487493038177,-0.0883588120341301,-0.054137732833623886,3.0,3.0,46.0,0.0,0.0,-0.6576736569404602,1.7305399179458618,0.0001274752285098657,0.00040441687451675534,-0.004658046178519726,0.0007743233582004905,-0.43245384097099304,0.9373627305030823,3.8632261753082275,0.0001274752285098657,0.0007374491542577744,3.2440170798508916e-06,0.00018872185319196433,3.8111438751220703,20.0,0.0,0.0,0.0,0.0,0.0,32.766,1.159,32.766,32.766,32.766,2023.26708984375,809.5404663085938,30.325355529785156,,False,
1783648247.0161428,2026-07-09T18:50:47,15277,20260709_185042,,,,,,ground_idle,,,,,,,,,False,0.019305892288684845,-0.007474879268556833,0.9993994235992432,-0.04522018879652023,0.08040975779294968,-0.056870777159929276,6.0,2.0,50.0,0.0,0.0,-0.6576736569404602,1.7305399179458618,0.0001274752285098657,0.00040441687451675534,-0.004658046178519726,0.0007743233582004905,-0.43245384097099304,0.9373627305030823,3.8632261753082275,0.0001274752285098657,0.0007374491542577744,3.2440170798508916e-06,0.00018872185319196433,3.8111438751220703,20.0,0.0,0.0,0.0,0.0,0.0,32.766,1.159,32.766,32.766,32.766,2023.26708984375,809.5404663085938,30.325355529785156,,False,
1783648247.026308,2026-07-09T18:50:47,15287,20260709_185042,,,,,,ground_idle,,,,,,,,,False,0.01760021597146988,-0.00772056682035327,0.9990780353546143,0.09306596964597702,-0.3518785834312439,-0.1288599669933319,0.0,3.0,26.0,0.0,0.0,-0.6573889255523682,1.7303117513656616,0.00016645467258058488,0.0017289732350036502,-0.005882897414267063,0.0009817263344302773,-0.4240148961544037,0.9276244640350342,3.8552193641662598,0.0001274752285098657,0.0007374491542577744,3.2440170798508916e-06,0.00018872185319196433,3.8111438751220703,20.0,0.0,0.0,0.0,0.0,0.0,32.766,1.159,32.766,32.766,32.766,2023.26708984375,809.5404663085938,30.325355529785156,,False,
1783648247.0364943,2026-07-09T18:50:47,15297,20260709_185042,,,,,,ground_idle,,,,,,,,,False,0.017109541222453117,-0.008999495767056942,1.0001647472381592,0.010223817080259323,0.0016636193031445146,0.11694076657295227,0.0,-2.0,23.0,0.0,0.0,-0.6573889255523682,1.7303117513656616,0.00016645467258058488,0.0017289732350036502,-0.005882897414267063,0.0009817263344302773,-0.4240148961544037,0.9276244640350342,3.8552193641662598,0.0001274752285098657,0.0007374491542577744,3.2440170798508916e-06,0.00018872185319196433,3.8111438751220703,20.0,0.0,0.0,0.0,0.0,0.0,32.766,1.159,32.766,32.766,32.766,2023.26708984375,809.5404663085938,30.325355529785156,,False,
1783648247.0466855,2026-07-09T18:50:47,15307,20260709_185042,,,,,,ground_idle,,,,,,,,,False,0.018214182928204536,-0.007983081974089146,1.0011727809906006,0.1034851223230362,0.07673236727714539,-0.012452528811991215,-5.0,-2.0,49.0,0.0,0.0,-0.6576679944992065,1.7303297519683838,0.00011129549238830805,0.0006833559018559754,-0.0052598887123167515,0.0005523680592887104,-0.43034034967422485,0.9395467638969421,3.8478052616119385,0.0001274752285098657,0.0007374491542577744,3.2440170798508916e-06,0.00018872185319196433,3.8111438751220703,20.0,0.0,0.0,0.0,0.0,0.0,32.766,1.159,32.766,32.766,32.766,2023.26708984375,809.5404663085938,30.325355529785156,,False,
1783648247.056844,2026-07-09T18:50:47,15317,20260709_185042,,,,,,ground_idle,,,,,,,,,False,0.017567088827490807,-0.008464139886200428,1.0011978149414062,-0.02446448802947998,-0.4193847179412842,0.1193627417087555,0.0,0.0,48.0,0.0,0.0,-0.6576679944992065,1.7303297519683838,0.00011129549238830805,0.0006833559018559754,-0.0052598887123167515,0.0005523680592887104,-0.43034034967422485,0.9395467638969421,3.8478052616119385,0.00012582895578816533,0.0006559549365192652,3.215179049220751e-06,0.00018818872922565788,3.8111438751220703,20.0,0.0,0.0,0.0,0.0,0.0,32.766,1.159,32.766,32.766,32.766,2023.26708984375,809.5404663085938,30.325355529785156,,False,
1783648247.0670025,2026-07-09T18:50:47,15327,20260709_185042,,,,,,ground_idle,,,,,,,,,False,0.018511608242988586,-0.009073550812900066,1.0024603605270386,0.0569441094994545,-0.13725420832633972,0.09034986793994904,0.0,-1.0,50.0,0.0,0.0,-0.6571738123893738,1.731705665588379,0.00013344577746465802,0.0031134127639234066,0.0015465521719306707,0.0008309241384267807,-0.4779859483242035,0.9179986119270325,3.838913917541504,0.00012582895578816533,0.0006559549365192652,3.215179049220751e-06,0.00018818872922565788,3.8111438751220703,20.0,0.0,0.0,0.0,0.0,0.0,32.766,1.159,32.766,32.766,32.766,2023.26708984375,809.5404663085938,30.325355529785156,,False,
1783648247.0771787,2026-07-09T18:50:47,15337,20260709_185042,,,,,,ground_idle,,,,,,,,,False,0.019711295142769814,-0.009668448939919472,1.0016642808914185,-0.17634689807891846,-0.008693603798747063,0.1208065003156662,0.0,0.0,49.0,0.0,0.0,-0.6571738123893738,1.731705665588379,0.00013344577746465802,0.0031134127639234066,0.0015465521719306707,0.0008309241384267807,-0.4779859483242035,0.9179986119270325,3.838913917541504,0.00012582895578816533,0.0006559549365192652,3.215179049220751e-06,0.00018818872922565788,3.8111438751220703,20.0,0.0,0.0,0.0,0.0,0.0,32.766,1.159,32.766,32.766,32.766,2023.26708984375,809.5404663085938,30.325355529785156,,False,
1783648247.0873406,2026-07-09T18:50:47,15347,20260709_185042,,,,,,ground_idle,,,,,,,,,False,0.017739128321409225,-0.008133253082633018,1.0010336637496948,-0.20540539920330048,-0.1988723874092102,0.17567485570907593,0.0,2.0,26.0,0.0,0.0,-0.6568582057952881,1.7317333221435547,9.002578008221462e-05,0.004795053508132696,0.0014760826015844941,0.0009515141719020903,-0.4752914309501648,0.9073009490966797,3.8309895992279053,0.00012582895578816533,0.0006559549365192652,3.215179049220751e-06,0.00018818872922565788,3.8111438751220703,20.0,0.0,0.0,0.0,0.0,0.0,32.766,1.159,32.766,32.766,32.766,2023.26708984375,809.5404663085938,30.325355529785156,,False,
1783648247.0977275,2026-07-09T18:50:47,15357,20260709_185042,,,,,,ground_idle,,,,,,,,,False,0.017000626772642136,-0.007416777312755585,0.9994802474975586,-0.14219574630260468,-0.3082824647426605,-0.018458561971783638,1.0,-2.0,50.0,0.0,0.0,-0.6568582057952881,1.7317333221435547,9.002578008221462e-05,0.004795053508132696,0.0014760826015844941,0.0009515141719020903,-0.4752914309501648,0.9073009490966797,3.8309895992279053,0.00012582895578816533,0.0006559549365192652,3.215179049220751e-06,0.00018818872922565788,3.8111438751220703,20.0,0.0,0.0,0.0,0.0,0.0,32.766,1.159,32.766,32.766,32.766,2023.26708984375,809.5404663085938,30.325355529785156,,False,
1783648247.10795,2026-07-09T18:50:47,15367,20260709_185042,,,,,,ground_idle,,,,,,,,,False,0.017062362283468246,-0.0064906170591712,1.0000226497650146,0.03219633921980858,0.4105667769908905,-0.028140587732195854,-1.0,0.0,48.0,0.0,0.0,-0.6568782925605774,1.7314497232437134,0.00011411797459004447,0.004773376975208521,-5.2460673032328486e-05,0.00113332225009799,-0.4654853641986847,0.9118627309799194,3.8238525390625,0.00011411797459004447,0.0010543940588831902,3.200040282536065e-06,0.00018821193953044713,3.816422462463379,20.0,0.0,0.0,0.0,0.0,0.0,32.766,1.064,32.766,32.766,32.766,2023.3326416015625,809.5344848632812,30.33112144470215,,False,
1783648247.1181142,2026-07-09T18:50:47,15380,20260709_185042,,,,,,ground_idle,,,,,,,,,False,0.017052022740244865,-0.009728963486850262,1.0013236999511719,0.12755753099918365,0.14823225140571594,0.09785546362400055,4.0,2.0,46.0,0.0,0.0,-0.657404899597168,1.7305999994277954,0.00014292076230049133,0.0020987149327993393,-0.003974006045609713,0.0012405056040734053,-0.4654853641986847,0.9118627309799194,3.8238525390625,0.00011411797459004447,0.0010543940588831902,3.200040282536065e-06,0.00018821193953044713,3.816422462463379,20.0,0.0,0.0,0.0,0.0,0.0,32.766,1.064,32.766,32.766,32.766,2023.3326416015625,809.5344848632812,30.33112144470215,,False,
1783648247.1282744,2026-07-09T18:50:47,15387,20260709_185042,,,,,,ground_idle,,,,,,,,,False,0.01776646263897419,-0.008277101442217827,1.001334547996521,-0.19054019451141357,0.19054102897644043,0.04245730862021446,1.0,0.0,26.0,0.0,0.0,-0.657404899597168,1.7305999994277954,0.00014292076230049133,0.0020987149327993393,-0.003974006045609713,0.0012405056040734053,-0.43447431921958923,0.9326260089874268,3.8171393871307373,0.00011411797459004447,0.0010543940588831902,3.200040282536065e-06,0.00018821193953044713,3.816422462463379,20.0,0.0,0.0,0.0,0.0,0.0,32.766,1.064,32.766,32.766,32.766,2023.3326416015625,809.5344848632812,30.33112144470215,,False,
1783648247.1384482,2026-07-09T18:50:47,15397,20260709_185042,,,,,,ground_idle,,,,,,,,,False,0.01642117276787758,-0.008592851459980011,1.0010336637496948,0.024921974167227745,-0.26867642998695374,-0.0486890934407711,-5.0,0.0,29.0,0.0,0.0,-0.657404899597168,1.7305999994277954,0.00014292076230049133,0.0020987149327993393,-0.003974006045609713,0.0012405056040734053,-0.43447431921958923,0.9326260089874268,3.8171393871307373,0.00011411797459004447,0.0010543940588831902,3.200040282536065e-06,0.00018821193953044713,3.816422462463379,20.0,0.0,0.0,0.0,0.0,0.0,32.766,1.064,32.766,32.766,32.766,2023.3326416015625,809.5344848632812,30.33112144470215,,False,
1783648247.1488214,2026-07-09T18:50:47,15407,20260709_185042,,,,,,ground_idle,,,,,,,,,False,0.016117431223392487,-0.00821051187813282,1.0019185543060303,-0.2375129610300064,0.2761286199092865,0.12480942904949188,3.0,-2.0,50.0,0.0,0.0,-0.6574639081954956,1.7316781282424927,0.00010963582462863997,0.0017751738196238875,0.0014320226619020104,0.0011949797626584768,-0.4770433306694031,0.9291470646858215,3.810837745666504,0.00011411797459004447,0.0010543940588831902,3.200040282536065e-06,0.00018821193953044713,3.816422462463379,20.0,0.0,0.0,0.0,0.0,0.0,32.766,1.064,32.766,32.766,32.766,2023.3326416015625,809.5344848632812,30.33112144470215,,False,
1783648247.1589942,2026-07-09T18:50:47,15421,20260709_185042,,,,,,ground_idle,,,,,,,,,False,0.018199080601334572,-0.009003333747386932,1.0009132623672485,0.020890962332487106,0.31005367636680603,-0.06410872936248779,0.0,7.0,48.0,0.0,0.0,-0.6587199568748474,1.7308146953582764,0.00014654254482593387,-0.004457434639334679,-0.0027043865993618965,0.0015639065532013774,-0.4482344388961792,0.975594699382782,3.803959608078003,0.00012501941819209605,0.0013128393329679966,3.1936306186253205e-06,0.00018835740047506988,3.8111438751220703,20.0,0.0,0.0,0.0,0.0,0.0,32.766,1.064,32.766,32.766,32.766,2023.3326416015625,809.5344848632812,30.33112144470215,,False,
1783648247.1691625,2026-07-09T18:50:47,15427,20260709_185042,,,,,,ground_idle,,,,,,,,,False,0.016066567972302437,-0.008865224197506905,1.0009593963623047,0.06503269821405411,-0.0018145081121474504,0.34252339601516724,-1.0,-7.0,51.0,0.0,0.0,-0.6587199568748474,1.7308146953582764,0.00014654254482593387,-0.004457434639334679,-0.0027043865993618965,0.0015639065532013774,-0.4482344388961792,0.975594699382782,3.803959608078003,0.00012501941819209605,0.0013128393329679966,3.1936306186253205e-06,0.00018835740047506988,3.8111438751220703,20.0,0.0,0.0,0.0,0.0,0.0,32.766,1.064,32.766,32.766,32.766,2023.3326416015625,809.5344848632812,30.33112144470215,,False,
1783648247.1793342,2026-07-09T18:50:47,15440,20260709_185042,,,,,,ground_idle,,,,,,,,,False,0.015618015080690384,-0.00688537210226059,1.0006263256072998,0.07145039737224579,0.10637449473142624,-0.3523804247379303,2.0,2.0,45.0,0.0,0.0,-0.6574132442474365,1.730660080909729,0.00012840161798521876,0.001816117437556386,-0.0034247608855366707,0.001486157183535397,-0.4482344388961792,0.975594699382782,3.803959608078003,0.00012501941819209605,0.0013128393329679966,3.1936306186253205e-06,0.00018835740047506988,3.8111438751220703,20.0,0.0,0.0,0.0,0.0,0.0,32.766,1.064,32.766,32.766,32.766,2023.3326416015625,809.5344848632812,30.33112144470215,,False,
1783648247.1897275,2026-07-09T18:50:47,15447,20260709_185042,,,,,,ground_idle,,,,,,,,,False,0.017297761514782906,-0.007236004341393709,0.999983012676239,0.020959436893463135,-0.10908322781324387,-0.06617330014705658,-3.0,-2.0,26.0,0.0,0.0,-0.6574132442474365,1.730660080909729,0.00012840161798521876,0.001816117437556386,-0.0034247608855366707,0.001486157183535397,-0.43860751390457153,0.9233448505401611,3.797004461288452,0.00012501941819209605,0.0013128393329679966,3.1936306186253205e-06,0.00018835740047506988,3.8111438751220703,20.0,0.0,0.0,0.0,0.0,0.0,32.766,1.064,32.766,32.766,32.766,2023.3326416015625,809.5344848632812,30.33112144470215,,False,
1783648247.1999612,2026-07-09T18:50:47,15461,20260709_185042,,,,,,ground_idle,,,,,,,,,False,0.01862080954015255,-0.0075476751662790775,0.9977917075157166,0.11517252773046494,0.5067862868309021,0.03119327314198017,0.0,0.0,52.0,0.0,0.0,-0.6569014191627502,1.7314552068710327,0.00016153468459378928,0.004121837206184864,0.0006667442503385246,0.0015192560385912657,-0.4679105579853058,0.9006104469299316,3.789259433746338,0.00012501941819209605,0.0013128393329679966,3.1936306186253205e-06,0.00018835740047506988,3.8111438751220703,20.0,0.0,0.0,0.0,0.0,0.0,32.766,1.064,32.766,32.766,32.766,2023.3326416015625,809.5344848632812,30.33112144470215,,False,
1783648247.2101774,2026-07-09T18:50:47,15467,20260709_185042,,,,,,ground_idle,,,,,,,,,False,0.018819579854607582,-0.008304552175104618,0.9992085099220276,-0.2001253217458725,0.17312800884246826,-0.2572130560874939,0.0,0.0,50.0,0.0,0.0,-0.6569014191627502,1.7314552068710327,0.00016153468459378928,0.004121837206184864,0.0006667442503385246,0.0015192560385912657,-0.4679105579853058,0.9006104469299316,3.789259433746338,0.00016153468459378928,0.0014568931655958295,3.3483377137599746e-06,0.00019538146443665028,3.816422462463379,20.0,0.0,0.0,0.0,0.0,0.0,32.766,32.766,32.766,32.766,32.766,2023.15771484375,809.5503540039062,30.343603134155273,,False,
1783648247.2203877,2026-07-09T18:50:47,15481,20260709_185042,,,,,,ground_idle,,,,,,,,,False,0.016880011186003685,-0.00826940592378378,0.998353123664856,0.08164658397436142,0.6288920640945435,-0.07864569127559662,0.0,0.0,48.0,0.0,0.0,-0.6568136215209961,1.731469988822937,0.0001893315784400329,0.004639761056751013,0.0007605983992107213,0.0013178304070606828,-0.4667407274246216,0.8939571976661682,3.781261682510376,0.00016153468459378928,0.0014568931655958295,3.3483377137599746e-06,0.00019538146443665028,3.816422462463379,20.0,0.0,0.0,0.0,0.0,0.0,32.766,32.766,32.766,32.766,32.766,2023.15771484375,809.5503540039062,30.343603134155273,,False,
1783648247.2306025,2026-07-09T18:50:47,15487,20260709_185042,,,,,,ground_idle,,,,,,,,,False,0.017408017069101334,-0.005746025592088699,0.9987916350364685,-0.10257493704557419,-0.4064880311489105,0.09149926900863647,0.0,5.0,29.0,0.0,0.0,-0.6568136215209961,1.731469988822937,0.0001893315784400329,0.004639761056751013,0.0007605983992107213,0.0013178304070606828,-0.4667407274246216,0.8939571976661682,3.781261682510376,0.00016153468459378928,0.0014568931655958295,3.3483377137599746e-06,0.00019538146443665028,3.816422462463379,20.0,0.0,0.0,0.0,0.0,0.0,32.766,32.766,32.766,32.766,32.766,2023.15771484375,809.5503540039062,30.343603134155273,,False,
1783648247.24078,2026-07-09T18:50:47,15501,20260709_185042,,,,,,ground_idle,,,,,,,,,False,0.017676759511232376,-0.006916390266269445,0.9992058873176575,-0.1246681734919548,-0.11015485227108002,0.13555891811847687,4.0,-1.0,26.0,0.0,0.0,-0.6579250693321228,1.7302759885787964,0.00013090536231175065,-0.0004773494438268244,-0.004774264991283417,0.000667643325868994,-0.42510828375816345,0.9370446801185608,3.77471923828125,0.00016153468459378928,0.0014568931655958295,3.3483377137599746e-06,0.00019538146443665028,3.816422462463379,20.0,0.0,0.0,0.0,0.0,0.0,32.766,32.766,32.766,32.766,32.766,2023.15771484375,809.5503540039062,30.343603134155273,,False,
1783648247.2509499,2026-07-09T18:50:47,15512,20260709_185042,,,,,,ground_idle,,,,,,,,,False,0.017603058367967606,-0.0071705421432852745,0.9990271925926208,0.09322043508291245,0.10243510454893112,0.17837366461753845,0.0,0.0,53.0,0.0,0.0,-0.6579250693321228,1.7302759885787964,0.00013090536231175065,-0.0004773494438268244,-0.004774264991283417,0.000667643325868994,-0.42510828375816345,0.9370446801185608,3.77471923828125,0.00013719097478315234,0.0005663774791173637,3.2890359307202743e-06,0.0001907519472297281,3.816422462463379,20.0,0.0,0.0,0.0,0.0,0.0,32.766,32.766,32.766,32.766,32.766,2023.15771484375,809.5503540039062,30.343603134155273,,False,
1783648247.2611132,2026-07-09T18:50:47,15521,20260709_185042,,,,,,ground_idle,,,,,,,,,False,0.017255403101444244,-0.007409935817122459,0.9985401034355164,-0.1075565293431282,0.19689753651618958,-0.05778426676988602,-5.0,-4.0,51.0,0.0,0.0,-0.6568220853805542,1.731796383857727,0.00015420782438013703,0.004891568329185247,0.0030341390520334244,0.000556737242732197,-0.47965720295906067,0.8913911581039429,3.768655776977539,0.00013719097478315234,0.0005663774791173637,3.2890359307202743e-06,0.0001907519472297281,3.8111438751220703,20.0,0.0,0.0,0.0,0.0,0.0,32.766,32.766,1.321,32.766,32.766,2023.15771484375,809.5503540039062,30.343603134155273,,False,
1783648247.2712784,2026-07-09T18:50:47,15527,20260709_185042,,,,,,ground_idle,,,,,,,,,False,0.01651330478489399,-0.008122486993670464,0.998683750629425,-0.20907168090343475,-0.34348738193511963,0.05563964694738388,3.0,0.0,49.0,0.0,0.0,-0.6568220853805542,1.731796383857727,0.00015420782438013703,0.004891568329185247,0.0030341390520334244,0.000556737242732197,-0.47965720295906067,0.8913911581039429,3.768655776977539,0.00013719097478315234,0.0005663774791173637,3.2890359307202743e-06,0.0001907519472297281,3.8111438751220703,20.0,0.0,0.0,0.0,0.0,0.0,32.766,32.766,1.321,32.766,32.766,2023.15771484375,809.5503540039062,30.343603134155273,,False,
1783648247.2814357,2026-07-09T18:50:47,15541,20260709_185042,,,,,,ground_idle,,,,,,,,,False,0.013593374751508236,-0.00918661616742611,1.0015043020248413,0.06858351081609726,0.5631749629974365,-0.16816025972366333,-1.0,3.0,47.0,0.0,0.0,-0.65767902135849,1.7311650514602661,0.00010359162843087688,0.0005299456533975899,-9.913407120620832e-05,5.724664879380725e-05,-0.4573913812637329,0.9260743260383606,3.7621538639068604,0.00013719097478315234,0.0005663774791173637,3.2890359307202743e-06,0.0001907519472297281,3.8111438751220703,20.0,0.0,0.0,0.0,0.0,0.0,32.766,32.766,1.321,32.766,32.766,2023.15771484375,809.5503540039062,30.343603134155273,,False,
1783648247.291659,2026-07-09T18:50:47,15547,20260709_185042,,,,,,ground_idle,,,,,,,,,False,0.015568834729492664,-0.009657513350248337,1.0028162002563477,-0.15056128799915314,-0.033363208174705505,-0.012043839320540428,0.0,5.0,26.0,0.0,0.0,-0.65767902135849,1.7311650514602661,0.00010359162843087688,0.0005299456533975899,-9.913407120620832e-05,5.724664879380725e-05,-0.4573913812637329,0.9260743260383606,3.7621538639068604,0.00013719097478315234,0.0005663774791173637,3.2890359307202743e-06,0.0001907519472297281,3.8111438751220703,20.0,0.0,0.0,0.0,0.0,0.0,32.766,32.766,1.321,32.766,32.766,2023.15771484375,809.5503540039062,30.343603134155273,,False,
1783648247.3018177,2026-07-09T18:50:47,15563,20260709_185042,,,,,,ground_idle,,,,,,,,,False,0.017527954652905464,-0.007807318586856127,1.0023263692855835,-0.2069217562675476,0.08353162556886673,0.22277623414993286,1.0,-7.0,54.0,0.0,0.0,-0.6571143865585327,1.7309283018112183,0.0001285416801692918,0.003244394902139902,-0.001423474750481546,0.0006449688808061182,-0.446469783782959,0.8993152976036072,3.752922773361206,0.0001285416801692918,0.0005827988497912884,3.4049667192448396e-06,0.00019585805421229452,3.8111438751220703,20.0,0.0,0.0,0.0,0.0,0.0,32.766,32.766,1.321,32.766,32.766,2023.15771484375,809.5503540039062,30.343603134155273,,False,
1783648247.3119774,2026-07-09T18:50:47,15567,20260709_185042,,,,,,ground_idle,,,,,,,,,False,0.016797522082924843,-0.00923916045576334,1.0004693269729614,0.012403435073792934,0.2801312804222107,0.09041501581668854,-1.0,-1.0,48.0,0.0,0.0,-0.6571143865585327,1.7309283018112183,0.0001285416801692918,0.003244394902139902,-0.001423474750481546,0.0006449688808061182,-0.446469783782959,0.8993152976036072,3.752922773361206,0.0001285416801692918,0.0005827988497912884,3.4049667192448396e-06,0.00019585805421229452,3.8111438751220703,20.0,0.0,0.0,0.0,0.0,0.0,32.766,32.766,1.321,32.766,32.766,2023.223388671875,809.544189453125,30.352149963378906,,False,
1783648247.322136,2026-07-09T18:50:47,15581,20260709_185042,,,,,,ground_idle,,,,,,,,,False,0.016879189759492874,-0.009838579222559929,1.0015192031860352,0.20957350730895996,0.2109840214252472,0.01040535606443882,-1.0,3.0,44.0,0.0,0.0,-0.657677173614502,1.731425166130066,0.00014845053374301642,0.000500591762829572,0.0007998531218618155,0.0008760763448663056,-0.46516871452331543,0.9150134921073914,3.7448418140411377,0.0001285416801692918,0.0005827988497912884,3.4049667192448396e-06,0.00019585805421229452,3.8111438751220703,20.0,0.0,0.0,0.0,0.0,0.0,32.766,32.766,1.321,32.766,32.766,2023.223388671875,809.544189453125,30.352149963378906,,False,
1783648247.3323116,2026-07-09T18:50:47,15587,20260709_185042,,,,,,ground_idle,,,,,,,,,False,0.017200332134962082,-0.007802531123161316,1.0007930994033813,-0.08489184081554413,0.3373901844024658,0.25687989592552185,1.0,-2.0,24.0,0.0,0.0,-0.657677173614502,1.731425166130066,0.00014845053374301642,0.000500591762829572,0.0007998531218618155,0.0008760763448663056,-0.46516871452331543,0.9150134921073914,3.7448418140411377,0.0001285416801692918,0.0005827988497912884,3.4049667192448396e-06,0.00019585805421229452,3.8111438751220703,20.0,0.0,0.0,0.0,0.0,0.0,32.766,32.766,1.321,32.766,32.766,2023.223388671875,809.544189453125,30.352149963378906,,False,
1783648247.3424683,2026-07-09T18:50:47,15601,20260709_185042,,,,,,ground_idle,,,,,,,,,False,0.01797015592455864,-0.007011778652667999,1.0012744665145874,-0.29661524295806885,-0.2185116410255432,0.1370406448841095,2.0,2.0,23.0,0.0,0.0,-0.6576376557350159,1.73065185546875,0.0001002619246719405,0.0008400710066780448,-0.0029837710317224264,0.0008452328038401902,-0.4361548125743866,0.9126753211021423,3.738586187362671,0.0001285416801692918,0.0005827988497912884,3.4049667192448396e-06,0.00019585805421229452,3.8111438751220703,20.0,0.0,0.0,0.0,0.0,0.0,32.766,32.766,1.321,32.766,32.766,2023.223388671875,809.544189453125,30.352149963378906,,False,
1783648247.3526938,2026-07-09T18:50:47,15613,20260709_185042,,,,,,ground_idle,,,,,,,,,False,0.019704654812812805,-0.006563105154782534,0.9982741475105286,0.03783959150314331,-0.032428544014692307,-0.15059563517570496,-3.0,-2.0,49.0,0.0,0.0,-0.6576376557350159,1.73065185546875,0.0001002619246719405,0.0008400710066780448,-0.0029837710317224264,0.0008452328038401902,-0.4361548125743866,0.9126753211021423,3.738586187362671,0.0001123093388741836,0.0008873438346199691,3.313881961730658e-06,0.0001905153039842844,3.8111438751220703,20.0,0.0,0.0,0.0,0.0,0.0,32.766,32.766,1.321,32.766,32.766,2023.223388671875,809.544189453125,30.352149963378906,,False,
1783648247.3629055,2026-07-09T18:50:47,15621,20260709_185042,,,,,,ground_idle,,,,,,,,,False,0.01807526685297489,-0.008915433660149574,0.9977105855941772,-0.08035344630479813,0.1009262353181839,-0.013527574017643929,-2.0,-1.0,50.0,0.0,0.0,-0.6569427251815796,1.73198401927948,0.00011874964548042044,0.004521460272371769,0.003677951404824853,0.0007419317262247205,-0.4845812916755676,0.8872469663619995,3.732354164123535,0.0001123093388741836,0.0008873438346199691,3.313881961730658e-06,0.0001905153039842844,3.8111438751220703,20.0,0.0,0.0,0.0,0.0,0.0,32.766,32.766,1.431,32.766,32.766,2023.223388671875,809.544189453125,30.352149963378906,,False,
1783648247.3731,2026-07-09T18:50:47,15627,20260709_185042,,,,,,ground_idle,,,,,,,,,False,0.017303673550486565,-0.010057087987661362,1.000199794769287,0.21552525460720062,0.11497285962104797,-0.035998426377773285,2.0,0.0,51.0,0.0,0.0,-0.6569427251815796,1.73198401927948,0.00011874964548042044,0.004521460272371769,0.003677951404824853,0.0007419317262247205,-0.4845812916755676,0.8872469663619995,3.732354164123535,0.0001123093388741836,0.0008873438346199691,3.313881961730658e-06,0.0001905153039842844,3.8111438751220703,20.0,0.0,0.0,0.0,0.0,0.0,32.766,32.766,1.431,32.766,32.766,2023.223388671875,809.544189453125,30.352149963378906,,False,
1783648247.3832302,2026-07-09T18:50:47,15641,20260709_185042,,,,,,ground_idle,,,,,,,,,False,0.01671026274561882,-0.00889366865158081,1.0021288394927979,0.12486063688993454,-0.2986615300178528,0.2994539737701416,4.0,4.0,45.0,0.0,0.0,-0.657880961894989,1.7304102182388306,8.74568140716292e-05,9.981060429709032e-05,-0.004392776172608137,0.0004754111578222364,-0.4263722002506256,0.9232814311981201,3.724867343902588,0.0001123093388741836,0.0008873438346199691,3.313881961730658e-06,0.0001905153039842844,3.8111438751220703,20.0,0.0,0.0,0.0,0.0,0.0,32.766,32.766,1.431,32.766,32.766,2023.223388671875,809.544189453125,30.352149963378906,,False,
1783648247.3934164,2026-07-09T18:50:47,15647,20260709_185042,,,,,,ground_idle,,,,,,,,,False,0.016469517722725868,-0.007863777689635754,1.0002145767211914,-0.0010000409092754126,0.2009240984916687,-0.3374706506729126,-9.0,-1.0,36.0,0.0,0.0,-0.657880961894989,1.7304102182388306,8.74568140716292e-05,9.981060429709032e-05,-0.004392776172608137,0.0004754111578222364,-0.4263722002506256,0.9232814311981201,3.724867343902588,0.0001123093388741836,0.0008873438346199691,3.313881961730658e-06,0.0001905153039842844,3.8111438751220703,20.0,0.0,0.0,0.0,0.0,0.0,32.766,32.766,1.431,32.766,32.766,2023.223388671875,809.544189453125,30.352149963378906,,False,
1783648247.4036427,2026-07-09T18:50:47,15664,20260709_185042,,,,,,ground_idle,,,,,,,,,False,0.01800631545484066,-0.006339735817164183,1.0009057521820068,-0.1992376446723938,0.12746751308441162,0.14665211737155914,3.0,-3.0,48.0,0.0,0.0,-0.6569656133651733,1.7319782972335815,0.00012262686504982412,0.004582816269248724,0.003097713692113757,0.0008077863603830338,-0.4784809648990631,0.8864547610282898,3.717866897583008,0.00012262686504982412,0.0007571394089609385,3.4136849080823595e-06,0.00019558770873118192,3.816422462463379,20.0,0.0,0.0,0.0,0.0,0.0,32.766,32.766,1.431,32.766,32.766,2023.223388671875,809.544189453125,30.352149963378906,,False,
1783648247.413837,2026-07-09T18:50:47,15676,20260709_185042,,,,,,ground_idle,,,,,,,,,False,0.018422117456793785,-0.008020617067813873,1.0008907318115234,-0.22242726385593414,-0.02556847780942917,-0.21724599599838257,-3.0,3.0,50.0,0.0,0.0,-0.6569656133651733,1.7319782972335815,0.00012262686504982412,0.004582816269248724,0.003097713692113757,0.0008077863603830338,-0.4784809648990631,0.8864547610282898,3.717866897583008,0.00012262686504982412,0.0007571394089609385,3.4136849080823595e-06,0.00019558770873118192,3.816422462463379,20.0,0.0,0.0,0.0,0.0,0.0,32.766,32.766,1.431,32.766,32.766,2023.2342529296875,809.5435791015625,30.360332489013672,,False,
1783648247.424024,2026-07-09T18:50:47,15681,20260709_185042,,,,,,ground_idle,,,,,,,,,False,0.018422117456793785,-0.008020617067813873,1.0008907318115234,-0.22242726385593414,-0.02556847780942917,-0.21724599599838257,5.0,-4.0,48.0,0.0,0.0,-0.6567044854164124,1.7315011024475098,0.00015825705486349761,0.006176163908094168,0.0005815000622533262,0.0011596922995522618,-0.4551829993724823,0.8776172995567322,3.7118990421295166,0.00012262686504982412,0.0007571394089609385,3.4136849080823595e-06,0.00019558770873118192,3.816422462463379,20.0,0.0,0.0,0.0,0.0,0.0,32.766,32.766,1.431,32.766,32.766,2023.2342529296875,809.5435791015625,30.360332489013672,,False,
1783648247.4342053,2026-07-09T18:50:47,15696,20260709_185042,,,,,,ground_idle,,,,,,,,,False,0.01698688603937626,-0.007190997712314129,1.000786542892456,-0.3736128807067871,-0.08987902104854584,-0.21330012381076813,0.0,5.0,22.0,0.0,0.0,-0.6567044854164124,1.7315011024475098,0.00015825705486349761,0.006176163908094168,0.0005815000622533262,0.0011596922995522618,-0.4551829993724823,0.8776172995567322,3.7118990421295166,0.00012262686504982412,0.0007571394089609385,3.4136849080823595e-06,0.00019558770873118192,3.816422462463379,20.0,0.0,0.0,0.0,0.0,0.0,32.766,32.766,1.431,32.766,32.766,2023.2342529296875,809.5435791015625,30.360332489013672,,False,
1783648247.4443753,2026-07-09T18:50:47,15701,20260709_185042,,,,,,ground_idle,,,,,,,,,False,0.01698688603937626,-0.007190997712314129,1.000786542892456,-0.3736128807067871,-0.08987902104854584,-0.21330012381076813,4.0,0.0,25.0,0.0,0.0,-0.6578623652458191,1.7304826974868774,0.0001138492880272679,0.0004674417432397604,-0.0043337843380868435,0.0009856154210865498,-0.42124494910240173,0.9209460616111755,3.7065632343292236,0.00012262686504982412,0.0007571394089609385,3.4136849080823595e-06,0.00019558770873118192,3.816422462463379,20.0,0.0,0.0,0.0,0.0,0.0,32.766,32.766,1.431,32.766,32.766,2023.2342529296875,809.5435791015625,30.360332489013672,,False,
1783648247.4545994,2026-07-09T18:50:47,15717,20260709_185042,,,,,,ground_idle,,,,,,,,,False,0.020622219890356064,-0.008706855587661266,0.9989291429519653,0.19074814021587372,0.6110043525695801,-0.17519764602184296,0.0,0.0,48.0,0.0,0.0,-0.6578623652458191,1.7304826974868774,0.0001138492880272679,0.0004674417432397604,-0.0043337843380868435,0.0009856154210865498,-0.42124494910240173,0.9209460616111755,3.7065632343292236,0.00013295690587256104,0.0010299325222149491,3.315184812890948e-06,0.00019040805636905134,3.8111438751220703,20.0,0.0,0.0,0.0,0.0,0.0,32.766,32.766,32.766,32.766,32.766,2023.2342529296875,809.5435791015625,30.360332489013672,,False,
1783648247.464817,2026-07-09T18:50:47,15726,20260709_185042,,,,,,ground_idle,,,,,,,,,False,0.020343460142612457,-0.00894883368164301,0.9989479184150696,-0.06259720772504807,0.13242574036121368,0.21357868611812592,0.0,0.0,48.0,0.0,0.0,-0.6569187045097351,1.7314940690994263,0.00014389010902959853,0.005187835544347763,0.0009820617269724607,0.0010855671716853976,-0.4598290026187897,0.8844774961471558,3.6964447498321533,0.00013295690587256104,0.0010299325222149491,3.315184812890948e-06,0.00019040805636905134,3.8111438751220703,20.0,0.0,0.0,0.0,0.0,0.0,32.766,32.766,32.766,32.766,32.766,2023.2342529296875,809.5435791015625,30.360332489013672,,False,
1783648247.475038,2026-07-09T18:50:47,15737,20260709_185042,,,,,,ground_idle,,,,,,,,,False,0.01769888587296009,-0.007429191377013922,0.999306857585907,-0.16246163845062256,-0.11002238839864731,0.14467807114124298,-1.0,0.0,43.0,0.0,0.0,-0.6569187045097351,1.7314940690994263,0.00014389010902959853,0.005187835544347763,0.0009820617269724607,0.0010855671716853976,-0.4598290026187897,0.8844774961471558,3.6964447498321533,0.00013295690587256104,0.0010299325222149491,3.315184812890948e-06,0.00019040805636905134,3.8111438751220703,20.0,0.0,0.0,0.0,0.0,0.0,32.766,32.766,32.766,32.766,32.766,2023.2342529296875,809.5435791015625,30.360332489013672,,False,
1783648247.485225,2026-07-09T18:50:47,15746,20260709_185042,,,,,,ground_idle,,,,,,,,,False,0.01670970767736435,-0.008817793801426888,0.9999752044677734,-0.20980681478977203,-0.538284957408905,-0.24340520799160004,-1.0,0.0,43.0,0.0,0.0,-0.656882107257843,1.7317566871643066,9.457454143557698e-05,0.005729431752115488,0.0021156296133995056,0.0005260009202174842,-0.46910563111305237,0.8809749484062195,3.6900060176849365,0.00013295690587256104,0.0010299325222149491,3.315184812890948e-06,0.00019040805636905134,3.8111438751220703,20.0,0.0,0.0,0.0,0.0,0.0,32.766,32.766,32.766,32.766,32.766,2023.2342529296875,809.5435791015625,30.360332489013672,,False,
1783648247.4954042,2026-07-09T18:50:47,15757,20260709_185042,,,,,,ground_idle,,,,,,,,,False,0.01811147853732109,-0.008166294544935226,1.000579833984375,0.14447805285453796,-0.14192548394203186,-0.05363796278834343,-7.0,-6.0,52.0,0.0,0.0,-0.656882107257843,1.7317566871643066,9.457454143557698e-05,0.005729431752115488,0.0021156296133995056,0.0005260009202174842,-0.46910563111305237,0.8809749484062195,3.6900060176849365,0.00013295690587256104,0.0010299325222149491,3.315184812890948e-06,0.00019040805636905134,3.8111438751220703,20.0,0.0,0.0,0.0,0.0,0.0,32.766,32.766,32.766,32.766,32.766,2023.2342529296875,809.5435791015625,30.360332489013672,,False,
1783648247.5056908,2026-07-09T18:50:47,15766,20260709_185042,,,,,,ground_idle,,,,,,,,,False,0.017333975061774254,-0.009776460938155651,1.0006977319717407,-0.06615540385246277,-0.21505165100097656,0.2401389330625534,-7.0,-6.0,52.0,0.0,0.0,-0.6574893593788147,1.7327141761779785,0.00013742686132900417,0.002806159434840083,0.0068415324203670025,0.0006703158724121749,-0.5087572336196899,0.9056491851806641,3.681978464126587,0.00013742686132900417,0.000678025302477181,3.251395128245349e-06,0.00018859864212572575,3.816422462463379,20.0,0.0,0.0,0.0,0.0,0.0,32.766,32.766,32.766,32.766,32.766,2023.2889404296875,809.53857421875,30.366207122802734,,False,
1783648247.515948,2026-07-09T18:50:47,15777,20260709_185042,,,,,,ground_idle,,,,,,,,,False,0.015921464189887047,-0.008457593619823456,0.9974316358566284,-0.10506925731897354,0.031095847487449646,0.08383655548095703,1.0,-3.0,51.0,0.0,0.0,-0.6574893593788147,1.7327141761779785,0.00013742686132900417,0.002806159434840083,0.0068415324203670025,0.0006703158724121749,-0.5087572336196899,0.9056491851806641,3.681978464126587,0.00013742686132900417,0.000678025302477181,3.251395128245349e-06,0.00018859864212572575,3.816422462463379,20.0,0.0,0.0,0.0,0.0,0.0,32.766,32.766,32.766,32.766,32.766,2023.2889404296875,809.53857421875,30.366207122802734,,False,
1783648247.526111,2026-07-09T18:50:47,15787,20260709_185042,,,,,,ground_idle,,,,,,,,,False,0.015548266470432281,-0.007758354768157005,0.9984657764434814,-0.21310263872146606,-0.02332691289484501,0.1243462786078453,-1.0,4.0,27.0,0.0,0.0,-0.656940758228302,1.7312661409378052,0.0001680483837844804,0.0057366411201655865,-0.0008578095585107803,0.0008548392215743661,-0.4474449157714844,0.8892547488212585,3.675588369369507,0.00013742686132900417,0.000678025302477181,3.251395128245349e-06,0.00018859864212572575,3.816422462463379,20.0,0.0,0.0,0.0,0.0,0.0,32.766,32.766,32.766,32.766,32.766,2023.2889404296875,809.53857421875,30.366207122802734,,False,
1783648247.5362668,2026-07-09T18:50:47,15797,20260709_185042,,,,,,ground_idle,,,,,,,,,False,0.01753571815788746,-0.008931757882237434,1.0016244649887085,-0.17111694812774658,0.1831490695476532,0.18163466453552246,-4.0,-2.0,30.0,0.0,0.0,-0.656940758228302,1.7312661409378052,0.0001680483837844804,0.0057366411201655865,-0.0008578095585107803,0.0008548392215743661,-0.4474449157714844,0.8892547488212585,3.675588369369507,0.00013742686132900417,0.000678025302477181,3.251395128245349e-06,0.00018859864212572575,3.816422462463379,20.0,0.0,0.0,0.0,0.0,0.0,32.766,32.766,32.766,32.766,32.766,2023.2889404296875,809.53857421875,30.366207122802734,,False,
1783648247.546424,2026-07-09T18:50:47,15807,20260709_185042,,,,,,ground_idle,,,,,,,,,False,0.016750752925872803,-0.008839446119964123,1.0039091110229492,0.18757067620754242,-0.09375660121440887,-0.007892192341387272,2.0,-2.0,46.0,0.0,0.0,-0.6574962735176086,1.7324457168579102,0.00011110110062872991,0.002679430413991213,0.005012867506593466,0.00028999976348131895,-0.494711309671402,0.9067426919937134,3.6682138442993164,0.00013742686132900417,0.000678025302477181,3.251395128245349e-06,0.00018859864212572575,3.816422462463379,20.0,0.0,0.0,0.0,0.0,0.0,32.766,32.766,32.766,32.766,32.766,2023.2889404296875,809.53857421875,30.366207122802734,,False,
1783648247.556639,2026-07-09T18:50:47,15817,20260709_185042,,,,,,ground_idle,,,,,,,,,False,0.018647802993655205,-0.009911013767123222,1.000802993774414,-0.11245696246623993,-0.10784097760915756,0.006483062636107206,1.0,0.0,48.0,0.0,0.0,-0.6574962735176086,1.7324457168579102,0.00011110110062872991,0.002679430413991213,0.005012867506593466,0.00028999976348131895,-0.494711309671402,0.9067426919937134,3.6682138442993164,0.00011848272697534412,0.0005226764478720725,3.2158832254935987e-06,0.0001882526121335104,3.8111438751220703,20.0,0.0,0.0,0.0,0.0,0.0,32.766,32.766,32.766,0.305,32.766,2023.2889404296875,809.53857421875,30.366207122802734,,False,
1783648247.5667908,2026-07-09T18:50:47,15827,20260709_185042,,,,,,ground_idle,,,,,,,,,False,0.019005348905920982,-0.01087531540542841,0.9999210238456726,-0.03870466724038124,0.1260124146938324,-0.12706606090068817,1.0,3.0,49.0,0.0,0.0,-0.6569984555244446,1.7317522764205933,0.00012734215124510229,0.005118127446621656,0.0010878336615860462,0.0009349954780191183,-0.46533381938934326,0.8913456797599792,3.6611127853393555,0.00011848272697534412,0.0005226764478720725,3.2158832254935987e-06,0.0001882526121335104,3.8111438751220703,20.0,0.0,0.0,0.0,0.0,0.0,32.766,32.766,32.766,0.305,32.766,2023.2889404296875,809.53857421875,30.366207122802734,,False,
1783648247.5769446,2026-07-09T18:50:47,15837,20260709_185042,,,,,,ground_idle,,,,,,,,,False,0.01603238843381405,-0.009132553823292255,0.9983150959014893,-0.11411528289318085,-0.25124287605285645,-0.10214003175497055,0.0,-3.0,28.0,0.0,0.0,-0.6569984555244446,1.7317522764205933,0.00012734215124510229,0.005118127446621656,0.0010878336615860462,0.0009349954780191183,-0.46533381938934326,0.8913456797599792,3.6611127853393555,0.00011848272697534412,0.0005226764478720725,3.2158832254935987e-06,0.0001882526121335104,3.8111438751220703,20.0,0.0,0.0,0.0,0.0,0.0,32.766,32.766,32.766,0.305,32.766,2023.2889404296875,809.53857421875,30.366207122802734,,False,
1783648247.587116,2026-07-09T18:50:47,15847,20260709_185042,,,,,,ground_idle,,,,,,,,,False,0.016039051115512848,-0.008569389581680298,0.9989495873451233,-0.27592572569847107,0.14676283299922943,0.09517167508602142,0.0,8.0,45.0,0.0,0.0,-0.657019317150116,1.7315051555633545,9.427903569303453e-05,0.005279505625367165,-0.0005766777903772891,0.0007346477941609919,-0.4540419280529022,0.8934604525566101,3.6526663303375244,0.00011848272697534412,0.0005226764478720725,3.2158832254935987e-06,0.0001882526121335104,3.8111438751220703,20.0,0.0,0.0,0.0,0.0,0.0,32.766,32.766,32.766,0.305,32.766,2023.2889404296875,809.53857421875,30.366207122802734,,False,
1783648247.5972993,2026-07-09T18:50:47,15857,20260709_185042,,,,,,ground_idle,,,,,,,,,False,0.015324132516980171,-0.009671062231063843,1.0014150142669678,0.06775366514921188,-0.2132468968629837,0.2743180990219116,-1.0,-8.0,50.0,0.0,0.0,-0.657019317150116,1.7315051555633545,9.427903569303453e-05,0.005279505625367165,-0.0005766777903772891,0.0007346477941609919,-0.4540419280529022,0.8934604525566101,3.6526663303375244,0.00011848272697534412,0.0005226764478720725,3.2158832254935987e-06,0.0001882526121335104,3.8111438751220703,20.0,0.0,0.0,0.0,0.0,0.0,32.766,32.766,32.766,0.305,32.766,2023.2889404296875,809.53857421875,30.366207122802734,,False,
1783648247.6074798,2026-07-09T18:50:47,15867,20260709_185042,,,,,,ground_idle,,,,,,,,,False,0.017047474160790443,-0.009932765737175941,1.0004702806472778,-0.04907522723078728,0.011511614546179771,0.12352358549833298,0.0,0.0,51.0,0.0,0.0,-0.6570616960525513,1.731735110282898,0.00013561789819505066,0.004943015985190868,0.0004938283818773925,0.0007365762139670551,-0.4639769196510315,0.8928332328796387,3.646042823791504,0.00013561789819505066,0.0006605549715459347,3.356046590852202e-06,0.00019527701078914106,3.816422462463379,20.0,0.0,0.0,0.0,0.0,0.0,32.766,32.766,32.766,0.305,32.766,2023.2725830078125,809.5401611328125,30.375211715698242,,False,
1783648247.6178505,2026-07-09T18:50:47,15880,20260709_185042,,,,,,ground_idle,,,,,,,,,False,0.01701834797859192,-0.0097454022616148,0.9994676113128662,-0.11277177184820175,0.0812646821141243,-0.17384326457977295,3.0,0.0,54.0,0.0,0.0,-0.6569838523864746,1.7310099601745605,0.00015289596922229975,0.005050236359238625,-0.0035374530125409365,0.000846196198835969,-0.4639769196510315,0.8928332328796387,3.646042823791504,0.00013561789819505066,0.0006605549715459347,3.356046590852202e-06,0.00019527701078914106,3.816422462463379,20.0,0.0,0.0,0.0,0.0,0.0,32.766,32.766,32.766,0.305,32.766,2023.2725830078125,809.5401611328125,30.375211715698242,,False,
1783648247.6280105,2026-07-09T18:50:47,15887,20260709_185042,,,,,,ground_idle,,,,,,,,,False,0.02036120742559433,-0.006561902351677418,1.0007277727127075,-0.2503812909126282,-0.04406708478927612,0.07861684262752533,1.0,2.0,28.0,0.0,0.0,-0.6569838523864746,1.7310099601745605,0.00015289596922229975,0.005050236359238625,-0.0035374530125409365,0.000846196198835969,-0.43209168314933777,0.8942092657089233,3.6400339603424072,0.00013561789819505066,0.0006605549715459347,3.356046590852202e-06,0.00019527701078914106,3.816422462463379,20.0,0.0,0.0,0.0,0.0,0.0,32.766,32.766,32.766,0.305,32.766,2023.2725830078125,809.5401611328125,30.375211715698242,,False,
1783648247.6381671,2026-07-09T18:50:47,15900,20260709_185042,,,,,,ground_idle,,,,,,,,,False,0.019533617421984673,-0.00954645499587059,0.9989067912101746,0.11416111886501312,0.2731115221977234,-0.0031141748186200857,0.0,0.0,28.0,0.0,0.0,-0.6574268937110901,1.7307029962539673,9.966478683054447e-05,0.0031118877232074738,-0.004728590603917837,0.0005853910115547478,-0.43209168314933777,0.8942092657089233,3.6400339603424072,0.00013561789819505066,0.0006605549715459347,3.356046590852202e-06,0.00019527701078914106,3.816422462463379,20.0,0.0,0.0,0.0,0.0,0.0,32.766,32.766,32.766,0.305,32.766,2023.2725830078125,809.5401611328125,30.375211715698242,,False,
1783648247.6483305,2026-07-09T18:50:47,15907,20260709_185042,,,,,,ground_idle,,,,,,,,,False,0.017567981034517288,-0.009804539382457733,0.9985867142677307,0.045239243656396866,0.4174048900604248,0.18579919636249542,-2.0,1.0,51.0,0.0,0.0,-0.6574268937110901,1.7307029962539673,9.966478683054447e-05,0.0031118877232074738,-0.004728590603917837,0.0005853910115547478,-0.42696869373321533,0.9140969514846802,3.6331002712249756,0.00013561789819505066,0.0006605549715459347,3.356046590852202e-06,0.00019527701078914106,3.816422462463379,20.0,0.0,0.0,0.0,0.0,0.0,32.766,32.766,32.766,0.305,32.766,2023.2725830078125,809.5401611328125,30.375211715698242,,False,
1783648247.6585352,2026-07-09T18:50:47,15917,20260709_185042,,,,,,ground_idle,,,,,,,,,False,0.016464123502373695,-0.009563783183693886,0.9989497661590576,-0.13637711107730865,0.022436441853642464,0.03045538440346718,-2.0,-4.0,52.0,0.0,0.0,-0.6574268937110901,1.7307029962539673,9.966478683054447e-05,0.0031118877232074738,-0.004728590603917837,0.0005853910115547478,-0.42696869373321533,0.9140969514846802,3.6331002712249756,0.00010895024752244353,0.0004585421411320567,3.290384483989328e-06,0.0001907699042931199,3.8111438751220703,20.0,0.0,0.0,0.0,0.0,0.0,32.766,32.766,32.766,32.766,32.766,2023.2725830078125,809.5401611328125,30.375211715698242,,False,
1783648247.6687818,2026-07-09T18:50:47,15927,20260709_185042,,,,,,ground_idle,,,,,,,,,False,0.01757512241601944,-0.007550523150712252,0.99748694896698,0.0004257001564837992,-0.14661647379398346,0.09083832800388336,-4.0,4.0,51.0,0.0,0.0,-0.6567395329475403,1.7317475080490112,0.00011531585187185556,0.006635106634348631,0.0004963549436070025,0.0004182412230875343,-0.4686538875102997,0.8823670148849487,3.6254334449768066,0.00010895024752244353,0.0004585421411320567,3.290384483989328e-06,0.0001907699042931199,3.8111438751220703,20.0,0.0,0.0,0.0,0.0,0.0,32.766,32.766,32.766,32.766,32.766,2023.2725830078125,809.5401611328125,30.375211715698242,,False,
1783648247.6789448,2026-07-09T18:50:47,15940,20260709_185042,,,,,,ground_idle,,,,,,,,,False,0.017264045774936676,-0.007461302448064089,0.9984842538833618,0.08173244446516037,0.4781053364276886,0.11787617951631546,6.0,2.0,24.0,0.0,0.0,-0.6581943035125732,1.7311965227127075,8.679334860062227e-05,-0.000739485549274832,-0.002478157402947545,-8.441708632744849e-05,-0.4686538875102997,0.8823670148849487,3.6254334449768066,0.00010895024752244353,0.0004585421411320567,3.290384483989328e-06,0.0001907699042931199,3.8111438751220703,20.0,0.0,0.0,0.0,0.0,0.0,32.766,32.766,32.766,32.766,32.766,2023.2725830078125,809.5401611328125,30.375211715698242,,False,
1783648247.6891093,2026-07-09T18:50:47,15947,20260709_185042,,,,,,ground_idle,,,,,,,,,False,0.01729802042245865,-0.008741571567952633,0.9999447464942932,-0.09836828708648682,-0.15002691745758057,0.13151386380195618,2.0,-1.0,45.0,0.0,0.0,-0.6581943035125732,1.7311965227127075,8.679334860062227e-05,-0.000739485549274832,-0.002478157402947545,-8.441708632744849e-05,-0.44748184084892273,0.9408417344093323,3.6202878952026367,0.00010895024752244353,0.0004585421411320567,3.290384483989328e-06,0.0001907699042931199,3.8111438751220703,20.0,0.0,0.0,0.0,0.0,0.0,32.766,32.766,32.766,32.766,32.766,2023.2725830078125,809.5401611328125,30.375211715698242,,False,
1783648247.6992798,2026-07-09T18:50:47,15960,20260709_185042,,,,,,ground_idle,,,,,,,,,False,0.0174122117459774,-0.00804491713643074,1.0009779930114746,-0.17655031383037567,-0.16401870548725128,-0.20252354443073273,-4.0,-4.0,49.0,0.0,0.0,-0.6570126414299011,1.7317744493484497,9.28706576814875e-05,0.005350817926228046,0.0006945396889932454,-4.773141881742049e-06,-0.44748184084892273,0.9408417344093323,3.6202878952026367,0.00010895024752244353,0.0004585421411320567,3.290384483989328e-06,0.0001907699042931199,3.8111438751220703,20.0,0.0,0.0,0.0,0.0,0.0,32.766,32.766,32.766,32.766,32.766,2023.2725830078125,809.5401611328125,30.375211715698242,,False,
1783648247.7094476,2026-07-09T18:50:47,15967,20260709_185042,,,,,,ground_idle,,,,,,,,,False,0.016178447753190994,-0.007515093311667442,1.001625418663025,0.2901536524295807,-0.07280834764242172,-0.1667977124452591,-4.0,2.0,51.0,0.0,0.0,-0.6570126414299011,1.7317744493484497,9.28706576814875e-05,0.005350817926228046,0.0006945396889932454,-4.773141881742049e-06,-0.4712429940700531,0.8908117413520813,3.6127848625183105,9.28706576814875e-05,-8.554615487810224e-05,3.4045376651192782e-06,0.00019596163474489003,3.816422462463379,20.0,0.0,0.0,0.0,0.0,0.0,32.766,1.161,32.766,32.766,32.766,2023.2889404296875,809.5387573242188,30.385717391967773,,False,
1783648247.7197347,2026-07-09T18:50:47,15981,20260709_185042,,,,,,ground_idle,,,,,,,,,False,0.016711680218577385,-0.008870686404407024,1.0010942220687866,-0.03132309392094612,0.2535281181335449,-0.15873104333877563,6.0,-2.0,53.0,0.0,0.0,-0.6570107936859131,1.7313194274902344,0.00011239795276196674,0.005158672574907541,-0.0017727080266922712,0.0003770998737309128,-0.4506146013736725,0.8960412740707397,3.605379104614258,9.28706576814875e-05,-8.554615487810224e-05,3.4045376651192782e-06,0.00019596163474489003,3.816422462463379,20.0,0.0,0.0,0.0,0.0,0.0,32.766,1.161,32.766,32.766,32.766,2023.2889404296875,809.5387573242188,30.385717391967773,,False,
1783648247.7298946,2026-07-09T18:50:47,15987,20260709_185042,,,,,,ground_idle,,,,,,,,,False,0.016528094187378883,-0.008801902644336224,0.9991903305053711,0.0495309978723526,0.1493176519870758,0.023304756730794907,-2.0,0.0,23.0,0.0,0.0,-0.6570107936859131,1.7313194274902344,0.00011239795276196674,0.005158672574907541,-0.0017727080266922712,0.0003770998737309128,-0.4506146013736725,0.8960412740707397,3.605379104614258,9.28706576814875e-05,-8.554615487810224e-05,3.4045376651192782e-06,0.00019596163474489003,3.816422462463379,20.0,0.0,0.0,0.0,0.0,0.0,32.766,1.161,32.766,32.766,32.766,2023.2889404296875,809.5387573242188,30.385717391967773,,False,
1783648247.740091,2026-07-09T18:50:47,16001,20260709_185042,,,,,,ground_idle,,,,,,,,,False,0.015764012932777405,-0.008685432374477386,1.0008922815322876,-0.014660630375146866,-0.3506717085838318,0.048550449311733246,5.0,2.0,23.0,0.0,0.0,-0.6574645042419434,1.7305998802185059,7.215997902676463e-05,0.0026392110157757998,-0.005542334634810686,0.00012310032616369426,-0.42176032066345215,0.9169276356697083,3.597729444503784,9.28706576814875e-05,-8.554615487810224e-05,3.4045376651192782e-06,0.00019596163474489003,3.816422462463379,20.0,0.0,0.0,0.0,0.0,0.0,32.766,1.161,32.766,32.766,32.766,2023.2889404296875,809.5387573242188,30.385717391967773,,False,
1783648247.7502458,2026-07-09T18:50:47,16007,20260709_185042,,,,,,ground_idle,,,,,,,,,False,0.017174595966935158,-0.00714868912473321,1.000350832939148,0.11685698479413986,-0.29877033829689026,-0.2211570292711258,0.0,1.0,47.0,0.0,0.0,-0.6574645042419434,1.7305998802185059,7.215997902676463e-05,0.0026392110157757998,-0.005542334634810686,0.00012310032616369426,-0.42176032066345215,0.9169276356697083,3.597729444503784,9.28706576814875e-05,-8.554615487810224e-05,3.4045376651192782e-06,0.00019596163474489003,3.816422462463379,20.0,0.0,0.0,0.0,0.0,0.0,32.766,1.161,32.766,32.766,32.766,2023.2889404296875,809.5387573242188,30.385717391967773,,False,
1783648247.7604022,2026-07-09T18:50:47,16021,20260709_185042,,,,,,ground_idle,,,,,,,,,False,0.01807721145451069,-0.007983900606632233,0.9983676075935364,-0.10679810494184494,-0.15550410747528076,0.060358017683029175,-6.0,-3.0,50.0,0.0,0.0,-0.6570703387260437,1.7320024967193604,8.905711729312316e-05,0.004409248940646648,0.002118751173838973,0.00021115780691616237,-0.4784795939922333,0.898822009563446,3.5896778106689453,7.423984789056703e-05,0.00012298193178139627,3.31352907778637e-06,0.0001906419056467712,3.8111438751220703,20.0,0.0,0.0,0.0,0.0,0.0,32.766,1.161,32.766,32.766,32.766,2023.2889404296875,809.5387573242188,30.385717391967773,,False,
1783648247.7705996,2026-07-09T18:50:47,16027,20260709_185042,,,,,,ground_idle,,,,,,,,,False,0.016301263123750687,-0.009291521273553371,0.997675895690918,-0.33237308263778687,-0.33061835169792175,0.25850191712379456,-3.0,3.0,50.0,0.0,0.0,-0.6570703387260437,1.7320024967193604,8.905711729312316e-05,0.004409248940646648,0.002118751173838973,0.00021115780691616237,-0.4784795939922333,0.898822009563446,3.5896778106689453,7.423984789056703e-05,0.00012298193178139627,3.31352907778637e-06,0.0001906419056467712,3.8111438751220703,20.0,0.0,0.0,0.0,0.0,0.0,32.766,1.161,32.766,32.766,32.766,2023.2889404296875,809.5387573242188,30.385717391967773,,False,
1783648247.7807896,2026-07-09T18:50:47,16041,20260709_185042,,,,,,ground_idle,,,,,,,,,False,0.016049062833189964,-0.00991180632263422,0.9994136095046997,-0.02437736466526985,0.33421939611434937,-0.15270602703094482,5.0,-3.0,32.0,0.0,0.0,-0.6570587754249573,1.7315510511398315,6.21099243289791e-05,0.004412282258272171,-0.0006082064937800169,-0.0002831682504620403,-0.45909544825553894,0.9019514918327332,3.5845346450805664,7.423984789056703e-05,0.00012298193178139627,3.31352907778637e-06,0.0001906419056467712,3.8111438751220703,20.0,0.0,0.0,0.0,0.0,0.0,32.766,1.161,32.766,32.766,32.766,2023.2889404296875,809.5387573242188,30.385717391967773,,False,
1783648247.790952,2026-07-09T18:50:47,16047,20260709_185042,,,,,,ground_idle,,,,,,,,,False,0.015534336678683758,-0.008718918077647686,0.9991351366043091,0.01159141305834055,-0.2675458788871765,0.00921675655990839,0.0,0.0,47.0,0.0,0.0,-0.6570587754249573,1.7315510511398315,6.21099243289791e-05,0.004412282258272171,-0.0006082064937800169,-0.0002831682504620403,-0.45909544825553894,0.9019514918327332,3.5845346450805664,7.423984789056703e-05,0.00012298193178139627,3.31352907778637e-06,0.0001906419056467712,3.8111438751220703,20.0,0.0,0.0,0.0,0.0,0.0,32.766,1.161,32.766,32.766,32.766,2023.2889404296875,809.5387573242188,30.385717391967773,,False,
1783648247.8011568,2026-07-09T18:50:47,16062,20260709_185042,,,,,,arming,,,,,,,,,False,0.014268380589783192,-0.007665076293051243,0.9971939325332642,-0.08917684108018875,-0.03228265792131424,-0.21357960999011993,3.0,3.0,48.0,0.0,0.0,-0.6576976776123047,1.7307977676391602,5.7489698519930243e-05,0.0006860257126390934,-0.004551428835839033,-0.0004976902855560184,-0.4312251806259155,0.9286357760429382,3.5775043964385986,5.7489698519930243e-05,-0.0005386162083595991,3.252309852541657e-06,0.00018868224287871271,3.8111438751220703,20.0,0.0,0.0,0.0,0.0,0.0,32.766,1.161,32.766,32.766,32.766,2023.2889404296875,809.5387573242188,30.385717391967773,,False,
1783648247.8113458,2026-07-09T18:50:47,16067,20260709_185042,,,,,,arming,,,,,,,,,False,0.016353853046894073,-0.007633749861270189,1.0004435777664185,-0.033795323222875595,0.023769540712237358,-0.12300904840230942,1.0,0.0,46.0,0.0,0.0,-0.6576976776123047,1.7307977676391602,5.7489698519930243e-05,0.0006860257126390934,-0.004551428835839033,-0.0004976902855560184,-0.4312251806259155,0.9286357760429382,3.5775043964385986,5.7489698519930243e-05,-0.0005386162083595991,3.252309852541657e-06,0.00018868224287871271,3.816422462463379,20.0,0.0,0.0,0.0,0.0,0.0,32.766,1.161,32.766,32.766,32.766,2023.2998046875,809.5374145507812,30.392051696777344,,False,
1783648247.82155,2026-07-09T18:50:47,16081,20260709_185042,,,,,,arming,,,,,,,,,False,0.017746370285749435,-0.008675060234963894,0.998993456363678,-0.036559514701366425,-0.1912245750427246,0.06971079111099243,-5.0,-3.0,50.0,0.0,0.0,-0.6570450067520142,1.731782078742981,5.7133140217047185e-05,0.003826678032055497,0.0009124474599957466,-0.0005498405662365258,-0.47372958064079285,0.8990201950073242,3.5705699920654297,5.7489698519930243e-05,-0.0005386162083595991,3.252309852541657e-06,0.00018868224287871271,3.816422462463379,20.0,0.0,0.0,0.0,0.0,0.0,32.766,1.161,32.766,32.766,32.766,2023.2998046875,809.5374145507812,30.392051696777344,,False,
1783648247.831764,2026-07-09T18:50:47,16087,20260709_185042,,,,,,arming,,,,,,,,,False,0.01733367331326008,-0.006952275056391954,0.9993281364440918,0.11333426088094711,0.2927408516407013,-0.06529241800308228,0.0,2.0,26.0,0.0,0.0,-0.6570450067520142,1.731782078742981,5.7133140217047185e-05,0.003826678032055497,0.0009124474599957466,-0.0005498405662365258,-0.47372958064079285,0.8990201950073242,3.5705699920654297,5.7489698519930243e-05,-0.0005386162083595991,3.252309852541657e-06,0.00018868224287871271,3.816422462463379,20.0,0.0,0.0,0.0,0.0,0.0,32.766,1.161,32.766,32.766,32.766,2023.2998046875,809.5374145507812,30.392051696777344,,False,
1783648247.8419847,2026-07-09T18:50:47,16101,20260709_185042,,,,,,arming,,,,,,,,,False,0.017567863687872887,-0.006798445712774992,1.0016896724700928,-0.02239915542304516,0.21791677176952362,-0.08814326673746109,5.0,3.0,24.0,0.0,0.0,-0.6581475734710693,1.7305651903152466,2.5913708668667823e-05,-0.001684154267422855,-0.005223328247666359,-0.0007150185410864651,-0.4256514012813568,0.9452646970748901,3.5641281604766846,5.7489698519930243e-05,-0.0005386162083595991,3.252309852541657e-06,0.00018868224287871271,3.816422462463379,20.0,0.0,0.0,0.0,0.0,0.0,32.766,1.161,32.766,32.766,32.766,2023.2998046875,809.5374145507812,30.392051696777344,,False,
1783648247.852247,2026-07-09T18:50:47,16113,20260709_185042,,,,,,arming,,,,,,,,,False,0.015259519219398499,-0.008960518054664135,1.0012164115905762,0.029847417026758194,0.22517071664333344,-0.0375075526535511,-5.0,-5.0,45.0,0.0,0.0,-0.6581475734710693,1.7305651903152466,2.5913708668667823e-05,-0.001684154267422855,-0.005223328247666359,-0.0007150185410864651,-0.4256514012813568,0.9452646970748901,3.5641281604766846,3.412531805224717e-05,-0.0005418563960120082,3.2171133170777466e-06,0.00018824319704435766,3.8111438751220703,20.0,0.0,7000.0,7000.0,7000.0,7000.0,32.766,1.161,32.766,32.766,32.766,2023.2998046875,809.5374145507812,30.392051696777344,,False,
1783648247.862457,2026-07-09T18:50:47,16121,20260709_185042,,,,,,arming,,,,,,,,,False,0.01574033871293068,-0.009045848622918129,1.001096487045288,-0.22481684386730194,-0.41240358352661133,-0.022895745933055878,-4.0,2.0,53.0,0.0,0.0,-0.6575661897659302,1.732664704322815,2.8895792638650164e-05,0.0009918001014739275,0.005719674751162529,-0.0003605940146371722,-0.509315550327301,0.914834201335907,3.55765438079834,3.412531805224717e-05,-0.0005418563960120082,3.2171133170777466e-06,0.00018824319704435766,3.8111438751220703,20.0,0.0,7000.0,7000.0,7000.0,7000.0,32.766,1.161,32.766,32.766,32.766,2023.2998046875,809.5374145507812,30.392051696777344,,False,
1783648247.8727083,2026-07-09T18:50:47,16127,20260709_185042,,,,,,arming,,,,,,,,,False,0.01861536130309105,-0.007676395587623119,1.0012633800506592,0.07877497375011444,0.1013672724366188,-0.23500292003154755,5.0,-2.0,47.0,0.0,0.0,-0.6575661897659302,1.732664704322815,2.8895792638650164e-05,0.0009918001014739275,0.005719674751162529,-0.0003605940146371722,-0.509315550327301,0.914834201335907,3.55765438079834,3.412531805224717e-05,-0.0005418563960120082,3.2171133170777466e-06,0.00018824319704435766,3.8111438751220703,20.0,0.0,7000.0,7000.0,7000.0,7000.0,32.766,1.161,32.766,32.766,32.766,2023.2998046875,809.5374145507812,30.392051696777344,,False,
1783648247.8828871,2026-07-09T18:50:47,16141,20260709_185042,,,,,,arming,,,,,,,,,False,0.02024390734732151,-0.007214424200356007,1.0005643367767334,0.1732676476240158,0.4742008447647095,0.11342222988605499,0.0,0.0,52.0,0.0,0.0,-0.657026469707489,1.731574535369873,2.3861030058469623e-05,0.0041315993294119835,-9.020895231515169e-05,-9.684846736490726e-05,-0.4607010781764984,0.8950016498565674,3.549743175506592,3.412531805224717e-05,-0.0005418563960120082,3.2171133170777466e-06,0.00018824319704435766,3.8111438751220703,20.0,0.0,7000.0,7000.0,7000.0,7000.0,32.766,1.161,32.766,32.766,32.766,2023.2998046875,809.5374145507812,30.392051696777344,,False,
1783648247.8930702,2026-07-09T18:50:47,16147,20260709_185042,,,,,,arming,,,,,,,,,False,0.016017235815525055,-0.009251004084944725,0.9996989965438843,0.05617160350084305,0.45600008964538574,0.036574289202690125,-1.0,0.0,47.0,0.0,0.0,-0.657026469707489,1.731574535369873,2.3861030058469623e-05,0.0041315993294119835,-9.020895231515169e-05,-9.684846736490726e-05,-0.4607010781764984,0.8950016498565674,3.549743175506592,3.412531805224717e-05,-0.0005418563960120082,3.2171133170777466e-06,0.00018824319704435766,3.8111438751220703,20.0,0.0,7000.0,7000.0,7000.0,7000.0,32.766,1.161,32.766,32.766,32.766,2023.2998046875,809.5374145507812,30.392051696777344,,False,
1783648247.9032798,2026-07-09T18:50:47,16164,20260709_185042,,,,,,arming,,,,,,,,,False,0.017719903960824013,-0.00975657720118761,0.997486412525177,-0.17874418199062347,-0.07854011654853821,-0.01110162679105997,2.0,2.0,48.0,0.0,0.0,-0.6575010418891907,1.7313123941421509,2.6005416657426395e-05,0.0016080529894679785,-0.0015931535745039582,-6.214821769390255e-05,-0.45002469420433044,0.9121016263961792,3.5441906452178955,2.6005416657426395e-05,-9.938902803696692e-05,3.2000496048567584e-06,0.00018833106150850654,3.8111438751220703,20.0,0.0,7000.0,7000.0,7000.0,7000.0,32.766,32.766,32.766,32.766,32.766,2023.2998046875,809.5374145507812,30.392051696777344,,False,
1783648247.9135232,2026-07-09T18:50:47,16167,20260709_185042,,,,,,arming,,,,,,,,,False,0.01675097644329071,-0.009370884858071804,0.9979923963546753,0.06068858876824379,0.4498421549797058,0.05381842330098152,0.0,1.0,51.0,0.0,0.0,-0.6575010418891907,1.7313123941421509,2.6005416657426395e-05,0.0016080529894679785,-0.0015931535745039582,-6.214821769390255e-05,-0.45002469420433044,0.9121016263961792,3.5441906452178955,2.6005416657426395e-05,-9.938902803696692e-05,3.2000496048567584e-06,0.00018833106150850654,3.8111438751220703,20.0,0.0,7000.0,7000.0,7000.0,7000.0,32.766,32.766,32.766,32.766,32.766,2023.3326416015625,809.5344848632812,30.397871017456055,,False,
1783648247.9237845,2026-07-09T18:50:47,16186,20260709_185042,,,,,,arming,,,,,,,,,False,0.02013489417731762,-0.007934847846627235,1.0003350973129272,-0.0056686089374125,0.1735638976097107,0.1888723224401474,0.0,-3.0,47.0,0.0,0.0,-0.6570344567298889,1.7313356399536133,2.2617379727307707e-05,0.0040716752409935,-0.0015600882470607758,-0.0003259972727391869,-0.4498351216316223,0.8908960223197937,3.5369436740875244,2.6005416657426395e-05,-9.938902803696692e-05,3.2000496048567584e-06,0.00018833106150850654,3.8111438751220703,20.0,0.0,7000.0,7000.0,7000.0,7000.0,32.766,32.766,32.766,32.766,32.766,2023.3326416015625,809.5344848632812,30.397871017456055,,False,
1783648247.9340365,2026-07-09T18:50:47,16196,20260709_185042,,,,,,arming,,,,,,,,,False,0.019689660519361496,-0.007109655067324638,1.000027060508728,-0.035823386162519455,-0.2309032529592514,-0.061178263276815414,-1.0,0.0,24.0,0.0,0.0,-0.6570344567298889,1.7313356399536133,2.2617379727307707e-05,0.0040716752409935,-0.0015600882470607758,-0.0003259972727391869,-0.4498351216316223,0.8908960223197937,3.5369436740875244,2.6005416657426395e-05,-9.938902803696692e-05,3.2000496048567584e-06,0.00018833106150850654,3.8111438751220703,20.0,0.0,7000.0,7000.0,7000.0,7000.0,32.766,32.766,32.766,32.766,32.766,2023.3326416015625,809.5344848632812,30.397871017456055,,False,
1783648247.9442146,2026-07-09T18:50:47,16206,20260709_185042,,,,,,arming,,,,,,,,,False,0.015350518748164177,-0.007238136138767004,0.9992842078208923,0.21203725039958954,0.21416102349758148,-0.10568487644195557,3.0,4.0,27.0,0.0,0.0,-0.6579250693321228,1.7308435440063477,1.2071852324879728e-05,-0.00036868778988718987,-0.003952252212911844,-0.0002846777788363397,-0.43152695894241333,0.9283655285835266,3.5308594703674316,2.6005416657426395e-05,-9.938902803696692e-05,3.2000496048567584e-06,0.00018833106150850654,3.8111438751220703,20.0,0.0,7000.0,7000.0,7000.0,7000.0,32.766,32.766,32.766,32.766,32.766,2023.3326416015625,809.5344848632812,30.397871017456055,,False,
1783648247.9543862,2026-07-09T18:50:47,16216,20260709_185042,,,,,,arming,,,,,,,,,False,0.015323586761951447,-0.010237842798233032,0.9993737936019897,0.14032018184661865,0.29130011796951294,-0.20579801499843597,-2.0,-3.0,50.0,0.0,0.0,-0.6579250693321228,1.7308435440063477,1.2071852324879728e-05,-0.00036868778988718987,-0.003952252212911844,-0.0002846777788363397,-0.43152695894241333,0.9283655285835266,3.5308594703674316,1.3860086255590431e-05,-0.00039171474054455757,3.1935207971400814e-06,0.00018849187472369522,3.790029287338257,20.0,0.0,7000.0,7000.0,7000.0,7000.0,32.766,32.766,1.176,32.766,32.766,2023.3326416015625,809.5344848632812,30.397871017456055,,False,
1783648247.9645703,2026-07-09T18:50:47,16226,20260709_185042,,,,,,arming,,,,,,,,,False,0.019661331549286842,-0.006241351831704378,0.9982460737228394,-0.027865564450621605,-0.19167619943618774,-0.15341782569885254,-6.0,0.0,50.0,0.0,0.0,-0.6573026776313782,1.7326864004135132,1.1349659871484619e-05,0.002784490119665861,0.006102194543927908,-0.0004185579309705645,-0.5034893155097961,0.8928049802780151,3.522613525390625,1.3860086255590431e-05,-0.00039171474054455757,3.1935207971400814e-06,0.00018849187472369522,3.790029287338257,20.0,0.0,7000.0,7000.0,7000.0,7000.0,32.766,32.766,1.176,32.766,32.766,2023.3326416015625,809.5344848632812,30.397871017456055,,False,
1783648247.9750328,2026-07-09T18:50:47,16237,20260709_185042,,,,,,arming,,,,,,,,,False,0.013797483406960964,-0.009813115932047367,0.9993977546691895,-0.08919751644134521,0.003219470614567399,-0.07712578028440475,-2.0,-7.0,49.0,0.0,0.0,-0.6573026776313782,1.7326864004135132,1.1349659871484619e-05,0.002784490119665861,0.006102194543927908,-0.0004185579309705645,-0.5034893155097961,0.8928049802780151,3.522613525390625,1.3860086255590431e-05,-0.00039171474054455757,3.1935207971400814e-06,0.00018849187472369522,3.790029287338257,20.0,0.0,7000.0,7000.0,7000.0,7000.0,32.766,32.766,1.176,32.766,32.766,2023.3326416015625,809.5344848632812,30.397871017456055,,False,
1783648247.9852521,2026-07-09T18:50:47,16246,20260709_185042,,,,,,arming,,,,,,,,,False,0.017819719389081,-0.009512599557638168,0.9996734857559204,-0.13407501578330994,-0.5657040476799011,0.2374969720840454,-2.0,-7.0,49.0,0.0,0.0,-0.6570752263069153,1.7322543859481812,2.1899450075579807e-05,0.004294029902666807,0.003370766993612051,-0.0004663113795686513,-0.48415735363960266,0.8857943415641785,3.5146679878234863,1.3860086255590431e-05,-0.00039171474054455757,3.1935207971400814e-06,0.00018849187472369522,3.790029287338257,20.0,0.0,7000.0,7000.0,7000.0,7000.0,32.766,32.766,1.176,32.766,32.766,2023.3326416015625,809.5344848632812,30.397871017456055,,False,
1783648247.9954696,2026-07-09T18:50:47,16257,20260709_185042,,,,,,arming,,,,,,,,,False,0.021855179220438004,-0.005181186832487583,1.0035518407821655,0.12870703637599945,0.4127350449562073,0.652360737323761,-3.0,1.0,49.0,0.0,0.0,-0.6570752263069153,1.7322543859481812,2.1899450075579807e-05,0.004294029902666807,0.003370766993612051,-0.0004663113795686513,-0.48415735363960266,0.8857943415641785,3.5146679878234863,1.3860086255590431e-05,-0.00039171474054455757,3.1935207971400814e-06,0.00018849187472369522,3.790029287338257,20.0,0.0,7000.0,7000.0,7000.0,7000.0,32.766,32.766,1.176,32.766,32.766,2023.3326416015625,809.5344848632812,30.397871017456055,,False,
1783648248.0057027,2026-07-09T18:50:48,16267,20260709_185042,,,,,,arming,,,,,,,,,False,0.016145598143339157,-0.008716932497918606,1.000795602798462,0.13095709681510925,-0.1904016137123108,0.6329928636550903,-6.0,0.0,48.0,0.0,0.0,-0.6577019691467285,1.731311559677124,3.028638820978813e-05,0.0009156062733381987,-0.0015901473816484213,-0.0002308385883225128,-0.4475190043449402,0.9141251444816589,3.509021759033203,3.028638820978813e-05,-0.0002566640614531934,3.191982614225708e-06,0.00018858053954318166,3.7953078746795654,20.0,0.0,7000.0,7000.0,7000.0,7000.0,32.766,32.766,1.176,32.766,32.766,2023.34912109375,809.533203125,30.408084869384766,,False,
1783648248.0158706,2026-07-09T18:50:48,16277,20260709_185042,,,,,,arming,,,,,,,,,False,0.02037746086716652,-0.010294533334672451,1.003355860710144,-0.15058186650276184,-0.651445746421814,1.0356687307357788,5.0,-3.0,51.0,0.0,0.0,-0.6577019691467285,1.731311559677124,3.028638820978813e-05,0.0009156062733381987,-0.0015901473816484213,-0.0002308385883225128,-0.4475190043449402,0.9141251444816589,3.509021759033203,3.028638820978813e-05,-0.0002566640614531934,3.191982614225708e-06,0.00018858053954318166,3.7953078746795654,20.0,0.0,7000.0,7000.0,7000.0,7000.0,32.766,32.766,1.176,32.766,32.766,2023.34912109375,809.533203125,30.408084869384766,,False,
1783648248.0260348,2026-07-09T18:50:48,16287,20260709_185042,,,,,,arming,,,,,,,,,False,0.018588703125715256,-0.010016221553087234,0.9994705319404602,-0.13723932206630707,-0.3601455092430115,1.1569571495056152,3.0,3.0,28.0,0.0,0.0,-0.6570735573768616,1.7315868139266968,4.23373821831774e-05,0.004224049858748913,4.5345674152486026e-05,-0.00014133313379716128,-0.4548974633216858,0.8873430490493774,3.5023386478424072,3.028638820978813e-05,-0.0002566640614531934,3.191982614225708e-06,0.00018858053954318166,3.7953078746795654,20.0,0.0,7000.0,7000.0,7000.0,7000.0,32.766,32.766,1.176,32.766,32.766,2023.34912109375,809.533203125,30.408084869384766,,False,
1783648248.036204,2026-07-09T18:50:48,16297,20260709_185042,,,,,,arming,,,,,,,,,False,0.012407930567860603,-0.0060276007279753685,0.9979289770126343,-0.3188698887825012,0.11280395090579987,0.3008071482181549,-2.0,4.0,28.0,0.0,0.0,-0.6570735573768616,1.7315868139266968,4.23373821831774e-05,0.004224049858748913,4.5345674152486026e-05,-0.00014133313379716128,-0.4548974633216858,0.8873430490493774,3.5023386478424072,3.028638820978813e-05,-0.0002566640614531934,3.191982614225708e-06,0.00018858053954318166,3.7953078746795654,20.0,0.0,7000.0,7000.0,7000.0,7000.0,32.766,32.766,1.176,32.766,32.766,2023.34912109375,809.533203125,30.408084869384766,,False,
1783648248.0463667,2026-07-09T18:50:48,16307,20260709_185042,,,,,,arming,,,,,,,,,False,0.016435055062174797,-0.009158805012702942,0.9981720447540283,0.5726563930511475,0.8755798935890198,0.4276063144207001,0.0,-7.0,50.0,0.0,0.0,-0.6585992574691772,1.7312697172164917,2.6721218091552146e-05,-0.003493363969027996,-0.001921895775012672,-8.937326492741704e-05,-0.4505664110183716,0.9620689153671265,3.497772216796875,3.028638820978813e-05,-0.0002566640614531934,3.191982614225708e-06,0.00018858053954318166,3.7953078746795654,20.0,0.0,7000.0,7000.0,7000.0,7000.0,32.766,32.766,1.176,32.766,32.766,2023.34912109375,809.533203125,30.408084869384766,,False,
1783648248.0565789,2026-07-09T18:50:48,16316,20260709_185042,,,,,,arming,,,,,,,,,False,0.018929170444607735,-0.0066650970838963985,1.001429557800293,0.04765215516090393,-0.3875807523727417,1.0231112241744995,0.0,-7.0,50.0,0.0,0.0,-0.6585992574691772,1.7312697172164917,2.6721218091552146e-05,-0.003493363969027996,-0.001921895775012672,-8.937326492741704e-05,-0.4505664110183716,0.9620689153671265,3.497772216796875,3.932667095796205e-05,-8.722306120034773e-06,3.1922641028359067e-06,0.00018858988187275827,3.790029287338257,20.0,0.0,7000.0,7000.0,7000.0,7000.0,32.766,32.766,32.766,0.294,32.766,2023.34912109375,809.533203125,30.408084869384766,,False,
1783648248.0667398,2026-07-09T18:50:48,16327,20260709_185042,,,,,,arming,,,,,,,,,False,0.018145309761166573,-0.010275502689182758,1.0058683156967163,-0.25202476978302,-0.3982701003551483,0.11226203292608261,3.0,-1.0,45.0,0.0,0.0,-0.6575731635093689,1.7324140071868896,4.5791370212100446e-05,0.0020635377150028944,0.004204811993986368,0.00026241529849357903,-0.4907797574996948,0.914023220539093,3.488896131515503,3.932667095796205e-05,-8.722306120034773e-06,3.1922641028359067e-06,0.00018858988187275827,3.790029287338257,20.0,0.0,7000.0,7000.0,7000.0,7000.0,32.766,32.766,32.766,0.294,32.766,2023.34912109375,809.533203125,30.408084869384766,,False,
1783648248.076897,2026-07-09T18:50:48,16340,20260709_185042,,,,,,arming,,,,,,,,,False,0.01997765339910984,-0.012292723171412945,1.0044769048690796,0.30719736218452454,0.54884934425354,0.4752081632614136,0.0,-2.0,55.0,0.0,0.0,-0.6569015979766846,1.731810212135315,3.5529992601368576e-05,0.005334135144948959,0.0008544052252545953,0.0005802838713862002,-0.4907797574996948,0.914023220539093,3.488896131515503,3.932667095796205e-05,-8.722306120034773e-06,3.1922641028359067e-06,0.00018858988187275827,3.790029287338257,20.0,0.0,7000.0,7000.0,7000.0,7000.0,32.766,32.766,32.766,0.294,32.766,2023.34912109375,809.533203125,30.408084869384766,,False,
1783648248.0870578,2026-07-09T18:50:48,16347,20260709_185042,,,,,,arming,,,,,,,,,False,0.013861317187547684,-0.0033965471666306257,1.0021002292633057,-0.4090077579021454,-0.43571510910987854,0.3806266784667969,0.0,0.0,51.0,0.0,0.0,-0.6569015979766846,1.731810212135315,3.5529992601368576e-05,0.005334135144948959,0.0008544052252545953,0.0005802838713862002,-0.46274885535240173,0.8909584879875183,3.4823501110076904,3.932667095796205e-05,-8.722306120034773e-06,3.1922641028359067e-06,0.00018858988187275827,3.790029287338257,20.0,0.0,7000.0,7000.0,7000.0,7000.0,32.766,32.766,32.766,0.294,32.766,2023.34912109375,809.533203125,30.408084869384766,,False,
1783648248.0972352,2026-07-09T18:50:48,16357,20260709_185042,,,,,,arming,,,,,,,,,False,0.017643440514802933,-0.008354268036782742,0.9930099248886108,-0.05628027766942978,-0.21520516276359558,0.37625443935394287,1.0,1.0,51.0,0.0,0.0,-0.6569015979766846,1.731810212135315,3.5529992601368576e-05,0.005334135144948959,0.0008544052252545953,0.0005802838713862002,-0.46274885535240173,0.8909584879875183,3.4823501110076904,3.932667095796205e-05,-8.722306120034773e-06,3.1922641028359067e-06,0.00018858988187275827,3.790029287338257,20.0,0.0,7000.0,7000.0,7000.0,7000.0,32.766,32.766,32.766,0.294,32.766,2023.34912109375,809.533203125,30.408084869384766,,False,
1783648248.1073961,2026-07-09T18:50:48,16367,20260709_185042,,,,,,arming,,,,,,,,,False,0.00918595027178526,-0.0032750291284173727,1.00552237033844,0.3112318515777588,0.11230645328760147,0.2083771824836731,1.0,0.0,49.0,0.0,0.0,-3.632741254477878e-06,-9.886423868010752e-06,3.399909473955631e-07,0.0001583248667884618,-0.0017194136744365096,9.725420386530459e-05,-0.004259341396391392,0.002965279622003436,-0.0012276285560801625,3.399909473955631e-07,9.711838356452063e-05,1.0,0.0001140000022132881,3.800586462020874,20.0,0.0,7000.0,7000.0,7000.0,7000.0,32.766,32.766,32.766,0.294,32.766,2023.2889404296875,809.53857421875,30.415990829467773,,False,
1783648248.1175973,2026-07-09T18:50:48,16377,20260709_185042,,,,,,arming,,,,,,,,,False,0.01372420322149992,-0.00413664523512125,1.0070343017578125,-0.7458480000495911,-1.3158754110336304,0.21363095939159393,-2.0,0.0,48.0,0.0,0.0,-3.632741254477878e-06,-9.886423868010752e-06,3.399909473955631e-07,0.0001583248667884618,-0.0017194136744365096,9.725420386530459e-05,-0.004259341396391392,0.002965279622003436,-0.0012276285560801625,3.399909473955631e-07,9.711838356452063e-05,1.0,0.0001140000022132881,3.800586462020874,20.0,0.0,7000.0,7000.0,7000.0,7000.0,32.766,32.766,32.766,0.294,32.766,2023.2889404296875,809.53857421875,30.415990829467773,,False,
1783648248.1278167,2026-07-09T18:50:48,16387,20260709_185042,,,,,,arming,,,,,,,,,False,0.023366490378975868,-0.01316957175731659,0.9927183985710144,1.059116244316101,0.8560428023338318,0.5977515578269958,4.0,5.0,22.0,0.0,0.0,4.289214120944962e-05,-5.381565279094502e-05,0.3125247359275818,0.0036773006431758404,-0.0026299229357391596,0.0001363701157970354,-0.01668904349207878,0.003826690372079611,-0.0036115869879722595,3.399909473955631e-07,9.711838356452063e-05,1.0,0.0001140000022132881,3.800586462020874,20.0,0.0,7000.0,7000.0,7000.0,7000.0,32.766,32.766,32.766,0.294,32.766,2023.2889404296875,809.53857421875,30.415990829467773,,False,
1783648248.1379712,2026-07-09T18:50:48,16400,20260709_185042,,,,,,arming,,,,,,,,,False,0.015452236868441105,-0.0018953176913782954,1.0084786415100098,-1.1131800413131714,-1.0006628036499023,-0.3370441198348999,-2.0,0.0,23.0,0.0,0.0,3.7799163692398e-05,-4.000130866188556e-05,1.2169343790446874e-05,0.004750353749841452,-0.002405279316008091,9.910188055073377e-06,-0.01668904349207878,0.003826690372079611,-0.0036115869879722595,3.399909473955631e-07,9.711838356452063e-05,1.0,0.0001140000022132881,3.800586462020874,20.0,0.0,7000.0,7000.0,7000.0,7000.0,32.766,32.766,32.766,0.294,32.766,2023.2889404296875,809.53857421875,30.415990829467773,,False,
1783648248.1481266,2026-07-09T18:50:48,16407,20260709_185042,,,,,,arming,,,,,,,,,False,0.020004499703645706,-0.01671564020216465,0.9912141561508179,0.6050540804862976,0.08796069771051407,0.09870483726263046,0.0,-5.0,43.0,0.0,0.0,3.7799163692398e-05,-4.000130866188556e-05,1.2169343790446874e-05,0.004750353749841452,-0.002405279316008091,9.910188055073377e-06,-0.04963884875178337,0.03750361129641533,-0.002297754166647792,3.399909473955631e-07,9.711838356452063e-05,1.0,0.0001140000022132881,3.800586462020874,20.0,0.0,7000.0,7000.0,7000.0,7000.0,32.766,32.766,32.766,0.294,32.766,2023.2889404296875,809.53857421875,30.415990829467773,,False,
1783648248.158284,2026-07-09T18:50:48,16420,20260709_185042,,,,,,arming,,,,,,,,,False,0.011346005834639072,-0.005202292464673519,1.005637288093567,0.6195597052574158,0.1814844012260437,-0.17503803968429565,1.0,0.0,48.0,0.0,0.0,0.0004892760771326721,-0.00016034928557928652,1.8157669501306373e-06,0.014103264547884464,-0.0054090265184640884,-0.0002616999263409525,-0.04963884875178337,0.03750361129641533,-0.002297754166647792,-1.5954087757563684e-06,0.00026201808941550553,6.317653969745152e-06,0.00016399970627389848,3.800586462020874,20.0,0.0,7000.0,7000.0,7000.0,7000.0,32.766,32.766,32.766,32.766,32.766,2023.2889404296875,809.53857421875,30.415990829467773,,False,
1783648248.1684499,2026-07-09T18:50:48,16427,20260709_185042,,,,,,arming,,,,,,,,,False,0.01494336873292923,-0.0038967502769082785,1.0082244873046875,-0.8639872074127197,-1.1985458135604858,-0.3417171537876129,0.0,0.0,55.0,0.0,0.0,0.0004892760771326721,-0.00016034928557928652,1.8157669501306373e-06,0.014103264547884464,-0.0054090265184640884,-0.0002616999263409525,-0.022824907675385475,-0.07247315347194672,-0.0006789722247049212,-1.5954087757563684e-06,0.00026201808941550553,6.317653969745152e-06,0.00016399970627389848,3.800586462020874,20.0,0.0,7000.0,7000.0,7000.0,7000.0,32.766,32.766,32.766,32.766,32.766,2023.2889404296875,809.53857421875,30.415990829467773,,False,
1783648248.178676,2026-07-09T18:50:48,16441,20260709_185042,,,,,,arming,,,,,,,,,False,0.01932099647819996,-0.00884068664163351,0.9941951036453247,1.3870450258255005,1.317187786102295,0.22246421873569489,-4.0,0.0,50.0,0.0,0.0,0.0007306311745196581,0.00014532521890942007,1.0962504347844515e-05,0.016491781920194626,0.0002400639932602644,-3.21606348734349e-05,-0.2069208323955536,-0.03242415562272072,-0.0010260387789458036,-1.5954087757563684e-06,0.00026201808941550553,6.317653969745152e-06,0.00016399970627389848,3.800586462020874,20.0,0.0,7000.0,7000.0,7000.0,7000.0,32.766,32.766,32.766,32.766,32.766,2023.2889404296875,809.53857421875,30.415990829467773,,False,
1783648248.188859,2026-07-09T18:50:48,16447,20260709_185042,,,,,,arming,,,,,,,,,False,0.009682772681117058,0.006637160200625658,1.00645112991333,-0.6561515927314758,-0.7771497368812561,-0.230937659740448,2.0,0.0,49.0,0.0,0.0,0.0007306311745196581,0.00014532521890942007,1.0962504347844515e-05,0.016491781920194626,0.0002400639932602644,-3.21606348734349e-05,-0.2069208323955536,-0.03242415562272072,-0.0010260387789458036,-1.5954087757563684e-06,0.00026201808941550553,6.317653969745152e-06,0.00016399970627389848,3.800586462020874,20.0,0.0,7000.0,7000.0,7000.0,7000.0,32.766,32.766,32.766,32.766,32.766,2023.2889404296875,809.53857421875,30.415990829467773,,False,
1783648248.198997,2026-07-09T18:50:48,16461,20260709_185042,,,,,,arming,,,,,,,,,False,0.02303961105644703,-0.015788672491908073,0.9989284873008728,0.07905368506908417,0.24943630397319794,-0.4735572636127472,0.0,0.0,46.0,0.0,0.0,0.0009909303626045585,-0.00010455111623741686,2.5151210138574243e-05,0.018341688439249992,-0.003162788227200508,0.0009677681373432279,-0.12106691300868988,0.00652115186676383,0.0009108543745242059,-1.5954087757563684e-06,0.00026201808941550553,6.317653969745152e-06,0.00016399970627389848,3.800586462020874,20.0,0.0,7000.0,7000.0,7000.0,7000.0,32.766,32.766,32.766,32.766,32.766,2023.2889404296875,809.53857421875,30.415990829467773,,False,
1783648248.2091737,2026-07-09T18:50:48,16467,20260709_185042,,,,,,arming,,,,,,,,,False,0.019657153636217117,-0.007340557873249054,1.0109869241714478,0.3498333692550659,0.6672216057777405,-0.5987510085105896,-4.0,2.0,50.0,0.0,0.0,0.0009909303626045585,-0.00010455111623741686,2.5151210138574243e-05,0.018341688439249992,-0.003162788227200508,0.0009677681373432279,-0.12106691300868988,0.00652115186676383,0.0009108543745242059,2.5151210138574243e-05,0.0009589967085048556,3.4627662444108864e-06,0.0002086637687170878,3.8058650493621826,20.0,0.0,7000.0,7000.0,7000.0,7000.0,32.766,1.122,32.766,32.766,32.766,2023.3272705078125,809.534912109375,30.424409866333008,,False,
1783648248.2194028,2026-07-09T18:50:48,16481,20260709_185042,,,,,,arming,,,,,,,,,False,0.016871849074959755,-0.011550876311957836,1.0006576776504517,-0.98851078748703,-0.7550482749938965,-0.512161910533905,4.0,-2.0,52.0,0.0,0.0,0.0011235621059313416,-0.0001364135678159073,6.5122454543598e-05,0.01875990442931652,-0.004213392268866301,0.0012228451669216156,-0.12110022455453873,0.08440613746643066,0.0029457679484039545,2.5151210138574243e-05,0.0009589967085048556,3.4627662444108864e-06,0.0002086637687170878,3.8058650493621826,20.0,0.0,7000.0,7000.0,7000.0,7000.0,32.766,1.122,32.766,32.766,32.766,2023.3272705078125,809.534912109375,30.424409866333008,,False,
1783648248.2296708,2026-07-09T18:50:48,16487,20260709_185042,,,,,,arming,,,,,,,,,False,0.017074888572096825,-0.011598867364227772,0.9978258609771729,1.7292202711105347,1.6735191345214844,-0.11733914166688919,-1.0,0.0,22.0,0.0,0.0,0.0011235621059313416,-0.0001364135678159073,6.5122454543598e-05,0.01875990442931652,-0.004213392268866301,0.0012228451669216156,-0.12110022455453873,0.08440613746643066,0.0029457679484039545,2.5151210138574243e-05,0.0009589967085048556,3.4627662444108864e-06,0.0002086637687170878,3.8058650493621826,20.0,0.0,7000.0,7000.0,7000.0,7000.0,32.766,1.122,32.766,32.766,32.766,2023.3272705078125,809.534912109375,30.424409866333008,,False,
1783648248.2398517,2026-07-09T18:50:48,16501,20260709_185042,,,,,,arming,,,,,,,,,False,0.010092542506754398,0.0028236638754606247,1.000110387802124,-1.714691400527954,-2.17445707321167,0.06536935269832611,1.0,0.0,22.0,0.0,0.0,0.0012315004132688046,-0.00017297177691943944,6.405122258001938e-05,0.018796900287270546,-0.0052212136797606945,0.0013647234300151467,-0.13125595450401306,0.16962257027626038,0.0013576849596574903,2.5151210138574243e-05,0.0009589967085048556,3.4627662444108864e-06,0.0002086637687170878,3.8058650493621826,20.0,0.0,7000.0,7000.0,7000.0,7000.0,32.766,1.122,32.766,32.766,32.766,2023.3272705078125,809.534912109375,30.424409866333008,,False,
1783648248.2500322,2026-07-09T18:50:48,16512,20260709_185042,,,,,,arming,,,,,,,,,False,0.018502259626984596,-0.014801783487200737,0.9898215532302856,1.0424588918685913,1.6697651147842407,-0.010807881131768227,0.0,0.0,50.0,0.0,0.0,0.0012315004132688046,-0.00017297177691943944,6.405122258001938e-05,0.018796900287270546,-0.0052212136797606945,0.0013647234300151467,-0.13125595450401306,0.16962257027626038,0.0013576849596574903,7.620492397109047e-05,0.0009885418694466352,2.9288528367032995e-06,0.00023827287077438086,3.8058650493621826,20.0,0.0,7000.0,7000.0,7000.0,7000.0,32.766,1.122,32.766,32.766,32.766,2023.3272705078125,809.534912109375,30.424409866333008,,False,
1783648248.2602205,2026-07-09T18:50:48,16521,20260709_185042,,,,,,arming,,,,,,,,,False,0.011530221439898014,-0.00038042126107029617,1.0024375915527344,-1.0206518173217773,-0.6957709193229675,-0.3903668522834778,0.0,3.0,46.0,0.0,0.0,0.0008398552890866995,-0.00023203245655167848,0.00010708842455642298,0.012878471985459328,-0.006183316931128502,0.0011183916358277202,-0.14677312970161438,0.39244985580444336,0.0025375811383128166,7.620492397109047e-05,0.0009885418694466352,2.9288528367032995e-06,0.00023827287077438086,3.800586462020874,20.0,0.0,7000.0,7000.0,7000.0,7000.0,32.766,1.122,32.766,32.766,32.766,2023.3272705078125,809.534912109375,30.424409866333008,,False,
1783648248.2703986,2026-07-09T18:50:48,16527,20260709_185042,,,,,,arming,,,,,,,,,False,0.027673717588186264,-0.016573568806052208,0.9925947189331055,0.4944497346878052,-0.20137444138526917,-0.7849621772766113,4.0,0.0,51.0,0.0,0.0,0.0008398552890866995,-0.00023203245655167848,0.00010708842455642298,0.012878471985459328,-0.006183316931128502,0.0011183916358277202,-0.14677312970161438,0.39244985580444336,0.0025375811383128166,7.620492397109047e-05,0.0009885418694466352,2.9288528367032995e-06,0.00023827287077438086,3.800586462020874,20.0,0.0,7000.0,7000.0,7000.0,7000.0,32.766,1.122,32.766,32.766,32.766,2023.3272705078125,809.534912109375,30.424409866333008,,False,
1783648248.2806997,2026-07-09T18:50:48,16541,20260709_185042,,,,,,arming,,,,,,,,,False,0.01910654455423355,-0.00561169907450676,1.0139498710632324,0.3599911034107208,0.44279903173446655,-0.6599481701850891,-3.0,-2.0,51.0,0.0,0.0,0.0012774987844750285,-0.000453246379038319,8.157542470144108e-05,0.016444846987724304,-0.007766338065266609,-4.608921517501585e-05,-0.13516691327095032,0.353207528591156,0.0007437692256644368,7.620492397109047e-05,0.0009885418694466352,2.9288528367032995e-06,0.00023827287077438086,3.800586462020874,20.0,0.0,7000.0,7000.0,7000.0,7000.0,32.766,1.122,32.766,32.766,32.766,2023.3272705078125,809.534912109375,30.424409866333008,,False,
1783648248.2908878,2026-07-09T18:50:48,16547,20260709_185042,,,,,,arming,,,,,,,,,False,0.020698582753539085,-0.017055943608283997,0.9997919201850891,-1.0798826217651367,-0.9777489900588989,-0.3165486454963684,0.0,-1.0,50.0,0.0,0.0,0.0012774987844750285,-0.000453246379038319,8.157542470144108e-05,0.016444846987724304,-0.007766338065266609,-4.608921517501585e-05,-0.13516691327095032,0.353207528591156,0.0007437692256644368,7.620492397109047e-05,0.0009885418694466352,2.9288528367032995e-06,0.00023827287077438086,3.800586462020874,20.0,0.0,7000.0,7000.0,7000.0,7000.0,32.766,1.122,32.766,32.766,32.766,2023.3272705078125,809.534912109375,30.424409866333008,,False,
1783648248.3010557,2026-07-09T18:50:48,16563,20260709_185042,,,,,,arming,,,,,,,,,False,0.019411735236644745,-0.007421648129820824,0.9956693053245544,2.115917682647705,2.0914809703826904,0.1402726173400879,0.0,0.0,44.0,0.0,0.0,0.0016429256647825241,-0.00048316537868231535,9.111534745898098e-05,0.019046742469072342,-0.007838373072445393,0.00022838036238681525,-0.16739709675312042,0.35059744119644165,0.000899179489351809,9.111534745898098e-05,8.892681944416836e-05,3.0219769087125314e-06,0.0002459564129821956,3.8058650493621826,20.0,0.0,7000.0,7000.0,7000.0,7000.0,32.766,1.122,32.766,32.766,32.766,2023.3272705078125,809.534912109375,30.424409866333008,,False,
1783648248.311225,2026-07-09T18:50:48,16567,20260709_185042,,,,,,arming,,,,,,,,,False,0.006182749290019274,-0.0026237505953758955,0.9947539567947388,-1.4643632173538208,-1.0199823379516602,0.33327215909957886,0.0,-1.0,50.0,0.0,0.0,0.0016429256647825241,-0.00048316537868231535,9.111534745898098e-05,0.019046742469072342,-0.007838373072445393,0.00022838036238681525,-0.16739709675312042,0.35059744119644165,0.000899179489351809,9.111534745898098e-05,8.892681944416836e-05,3.0219769087125314e-06,0.0002459564129821956,3.8058650493621826,20.0,0.0,7000.0,7000.0,7000.0,7000.0,32.766,32.766,32.766,32.766,32.766,2023.34912109375,809.5330810546875,30.42750358581543,,False,
1783648248.3213856,2026-07-09T18:50:48,16581,20260709_185042,,,,,,arming,,,,,,,,,False,0.020140565931797028,-0.00994475744664669,0.9968775510787964,-0.46607649326324463,-0.2101919949054718,0.5367041826248169,0.0,0.0,48.0,0.0,0.0,0.002057476667687297,-0.00052070984384045,0.00010252745414618403,0.020913036540150642,-0.0073564862832427025,0.0007157005020417273,-0.19771911203861237,0.3476077914237976,-0.0014060504036024213,9.111534745898098e-05,8.892681944416836e-05,3.0219769087125314e-06,0.0002459564129821956,3.8058650493621826,20.0,0.0,7000.0,7000.0,7000.0,7000.0,32.766,32.766,32.766,32.766,32.766,2023.34912109375,809.5330810546875,30.42750358581543,,False,
1783648248.3315876,2026-07-09T18:50:48,16587,20260709_185042,,,,,,arming,,,,,,,,,False,0.02392781339585781,-0.0064942119643092155,1.006243348121643,0.042454011738300323,0.19183796644210815,0.5068485736846924,2.0,6.0,25.0,0.0,0.0,0.002057476667687297,-0.00052070984384045,0.00010252745414618403,0.020913036540150642,-0.0073564862832427025,0.0007157005020417273,-0.19771911203861237,0.3476077914237976,-0.0014060504036024213,9.111534745898098e-05,8.892681944416836e-05,3.0219769087125314e-06,0.0002459564129821956,3.8058650493621826,20.0,0.0,7000.0,7000.0,7000.0,7000.0,32.766,32.766,32.766,32.766,32.766,2023.34912109375,809.5330810546875,30.42750358581543,,False,
1783648248.341788,2026-07-09T18:50:48,16601,20260709_185042,,,,,,arming,,,,,,,,,False,0.022681400179862976,-0.011474230326712132,0.999169647693634,-0.22243721783161163,-0.27547627687454224,0.14594094455242157,1.0,0.0,28.0,0.0,0.0,0.0003007151826750487,-0.001291293534450233,9.364642028231174e-05,0.004824930801987648,-0.013658148236572742,0.0007659386028535664,-0.08690022677183151,0.7485852837562561,-0.0034152294974774122,9.111534745898098e-05,8.892681944416836e-05,3.0219769087125314e-06,0.0002459564129821956,3.8058650493621826,20.0,0.0,7000.0,7000.0,7000.0,7000.0,32.766,32.766,32.766,32.766,32.766,2023.34912109375,809.5330810546875,30.42750358581543,,False,
1783648248.3519614,2026-07-09T18:50:48,16614,20260709_185042,,,,,,arming,,,,,,,,,False,0.017577340826392174,-0.00160685321316123,1.0069290399551392,0.25827348232269287,0.12439257651567459,0.06335591524839401,-2.0,-6.0,52.0,0.0,0.0,0.0003007151826750487,-0.001291293534450233,9.364642028231174e-05,0.004824930801987648,-0.013658148236572742,0.0007659386028535664,-0.08690022677183151,0.7485852837562561,-0.0034152294974774122,0.00011556642857613042,0.0004063557425979525,3.2311636459780857e-06,0.0002360547659918666,3.800586462020874,20.0,0.0,7000.0,7000.0,7000.0,7000.0,32.766,32.766,32.766,32.766,32.766,2023.34912109375,809.5330810546875,30.42750358581543,,False,
1783648248.3621223,2026-07-09T18:50:48,16621,20260709_185042,,,,,,arming,,,,,,,,,False,0.015653274953365326,-0.011890923604369164,0.9947863817214966,0.11249836534261703,0.4490460157394409,0.09191320836544037,2.0,3.0,47.0,0.0,0.0,0.001090286416001618,-0.0012087682262063026,0.00013868090172763914,0.011178754270076752,-0.011460606008768082,0.0010185565333813429,-0.1440073847770691,0.6402019262313843,-0.0029633999802172184,0.00011556642857613042,0.0004063557425979525,3.2311636459780857e-06,0.0002360547659918666,3.800586462020874,20.0,0.0,7000.0,7000.0,7000.0,7000.0,32.766,32.766,1.323,32.766,32.766,2023.34912109375,809.5330810546875,30.42750358581543,,False,
1783648248.3722785,2026-07-09T18:50:48,16627,20260709_185042,,,,,,arming,,,,,,,,,False,0.012633944861590862,-0.0019167856080457568,0.9995664954185486,0.6815622448921204,0.725180447101593,0.11296728253364563,-5.0,-1.0,46.0,0.0,0.0,0.001090286416001618,-0.0012087682262063026,0.00013868090172763914,0.011178754270076752,-0.011460606008768082,0.0010185565333813429,-0.1440073847770691,0.6402019262313843,-0.0029633999802172184,0.00011556642857613042,0.0004063557425979525,3.2311636459780857e-06,0.0002360547659918666,3.800586462020874,20.0,0.0,7000.0,7000.0,7000.0,7000.0,32.766,32.766,1.323,32.766,32.766,2023.34912109375,809.5330810546875,30.42750358581543,,False,
1783648248.3824384,2026-07-09T18:50:48,16641,20260709_185042,,,,,,arming,,,,,,,,,False,0.010476084426045418,-0.00579758919775486,1.0064040422439575,-1.3196840286254883,-0.872424840927124,0.3580115735530853,4.0,0.0,54.0,0.0,0.0,0.0012911285739392042,-0.0008659466984681785,0.00010722789738792926,0.011746453121304512,-0.007757930550724268,0.0009229403804056346,-0.22325944900512695,0.6383712291717529,-0.0025269784964621067,0.00011556642857613042,0.0004063557425979525,3.2311636459780857e-06,0.0002360547659918666,3.800586462020874,20.0,0.0,7000.0,7000.0,7000.0,7000.0,32.766,32.766,1.323,32.766,32.766,2023.34912109375,809.5330810546875,30.42750358581543,,False,
1783648248.3926783,2026-07-09T18:50:48,16647,20260709_185042,,,,,,arming,,,,,,,,,False,0.023218294605612755,-0.012190962210297585,0.9987728595733643,1.1418880224227905,1.4767650365829468,0.014537453651428223,-4.0,-1.0,49.0,0.0,0.0,0.0012911285739392042,-0.0008659466984681785,0.00010722789738792926,0.011746453121304512,-0.007757930550724268,0.0009229403804056346,-0.22325944900512695,0.6383712291717529,-0.0025269784964621067,0.00011556642857613042,0.0004063557425979525,3.2311636459780857e-06,0.0002360547659918666,3.800586462020874,20.0,0.0,7000.0,7000.0,7000.0,7000.0,32.766,32.766,1.323,32.766,32.766,2023.34912109375,809.5330810546875,30.42750358581543,,False,
1783648248.4028606,2026-07-09T18:50:48,16665,20260709_185042,,,,,,arming,,,,,,,,,False,0.014238336123526096,-0.003579889191314578,1.0024791955947876,-1.1665698289871216,-1.0775494575500488,-0.09504221379756927,0.0,0.0,46.0,0.0,0.0,0.0016854333225637674,0.00022601612727157772,0.0001288729254156351,0.014064781367778778,0.0005945293814875185,0.0010466008679941297,-0.3943157494068146,0.6091598868370056,0.0009161912021227181,0.0001288729254156351,0.0009010801441036165,3.354562068125233e-06,0.00021992591791786253,3.8058650493621826,20.0,0.0,7000.0,7000.0,7000.0,7000.0,32.766,1.186,1.323,32.766,32.766,2023.26708984375,809.5403442382812,30.4278507232666,,False,
1783648248.4130583,2026-07-09T18:50:48,16667,20260709_185042,,,,,,arming,,,,,,,,,False,0.022034374997019768,-0.011008159257471561,0.9975230097770691,0.6626124978065491,0.6877819895744324,0.021228421479463577,1.0,0.0,47.0,0.0,0.0,0.0016854333225637674,0.00022601612727157772,0.0001288729254156351,0.014064781367778778,0.0005945293814875185,0.0010466008679941297,-0.3943157494068146,0.6091598868370056,0.0009161912021227181,0.0001288729254156351,0.0009010801441036165,3.354562068125233e-06,0.00021992591791786253,3.8058650493621826,20.0,0.0,7000.0,7000.0,7000.0,7000.0,32.766,1.186,1.323,32.766,32.766,2023.26708984375,809.5403442382812,30.4278507232666,,False,
1783648248.4232469,2026-07-09T18:50:48,16681,20260709_185042,,,,,,arming,,,,,,,,,False,0.013468450866639614,-0.0035457529593259096,1.0062968730926514,-0.6816681027412415,-0.304888516664505,0.0854337066411972,1.0,0.0,50.0,0.0,0.0,0.0015747267752885818,-0.00035869437851943076,0.00015797381638549268,0.012705034576356411,-0.004206079989671707,0.0012030313955619931,-0.31634095311164856,0.6659966707229614,-0.0007745128823444247,0.0001288729254156351,0.0009010801441036165,3.354562068125233e-06,0.00021992591791786253,3.8058650493621826,20.0,0.0,7000.0,7000.0,7000.0,7000.0,32.766,1.186,1.323,32.766,32.766,2023.26708984375,809.5403442382812,30.4278507232666,,False,
1783648248.4334188,2026-07-09T18:50:48,16687,20260709_185042,,,,,,arming,,,,,,,,,False,0.02301524579524994,-0.019314508885145187,0.994118869304657,0.8961834907531738,0.12062036991119385,-0.11093871295452118,-2.0,0.0,26.0,0.0,0.0,0.0015747267752885818,-0.00035869437851943076,0.00015797381638549268,0.012705034576356411,-0.004206079989671707,0.0012030313955619931,-0.31634095311164856,0.6659966707229614,-0.0007745128823444247,0.0001288729254156351,0.0009010801441036165,3.354562068125233e-06,0.00021992591791786253,3.8058650493621826,20.0,0.0,7000.0,7000.0,7000.0,7000.0,32.766,1.186,1.323,32.766,32.766,2023.26708984375,809.5403442382812,30.4278507232666,,False,
1783648248.4436169,2026-07-09T18:50:48,16701,20260709_185042,,,,,,arming,,,,,,,,,False,0.017521504312753677,-0.004816113039851189,1.0037754774093628,-0.3481937348842621,0.36407244205474854,0.18947790563106537,5.0,5.0,26.0,0.0,0.0,6.366856541717425e-05,-0.0012171872658655047,0.00011835249461000785,0.0013884727377444506,-0.011039863340556622,0.0009577388991601765,-0.2135799378156662,0.884058952331543,-0.0030369905289262533,0.0001288729254156351,0.0009010801441036165,3.354562068125233e-06,0.00021992591791786253,3.8058650493621826,20.0,0.0,7000.0,7000.0,7000.0,7000.0,32.766,1.186,1.323,32.766,32.766,2023.26708984375,809.5403442382812,30.4278507232666,,False,
1783648248.4538326,2026-07-09T18:50:48,16717,20260709_185042,,,,,,arming,,,,,,,,,False,0.019499633461236954,-0.008816891349852085,1.0012681484222412,0.6939908862113953,0.706346333026886,0.38647326827049255,3.0,0.0,45.0,0.0,0.0,6.366856541717425e-05,-0.0012171872658655047,0.00011835249461000785,0.0013884727377444506,-0.011039863340556622,0.0009577388991601765,-0.2135799378156662,0.884058952331543,-0.0030369905289262533,0.00015779411478433758,0.001252477872185409,3.3754188279999653e-06,0.0002058891113847494,3.800586462020874,20.0,0.0,7000.0,7000.0,7000.0,7000.0,32.766,1.186,32.766,32.766,32.766,2023.26708984375,809.5403442382812,30.4278507232666,,False,
1783648248.4640074,2026-07-09T18:50:48,16726,20260709_185042,,,,,,arming,,,,,,,,,False,0.01978943683207035,-0.011565253138542175,0.9961188435554504,-0.49039527773857117,-0.5335495471954346,0.6470259428024292,3.0,0.0,45.0,0.0,0.0,0.0014379379572346807,-0.0006148838438093662,0.00017564589506946504,0.011073880828917027,-0.006224189419299364,0.001083384151570499,-0.3057428002357483,0.735162079334259,-0.0002605999761726707,0.00015779411478433758,0.001252477872185409,3.3754188279999653e-06,0.0002058891113847494,3.800586462020874,20.0,0.0,7000.0,7000.0,7000.0,7000.0,32.766,1.186,32.766,32.766,32.766,2023.26708984375,809.5403442382812,30.4278507232666,,False,
1783648248.4742093,2026-07-09T18:50:48,16736,20260709_185042,,,,,,arming,,,,,,,,,False,0.017006374895572662,-0.006737296469509602,1.0032495260238647,0.4008295238018036,0.34062817692756653,0.15068501234054565,0.0,0.0,54.0,0.0,0.0,0.0014379379572346807,-0.0006148838438093662,0.00017564589506946504,0.011073880828917027,-0.006224189419299364,0.001083384151570499,-0.3057428002357483,0.735162079334259,-0.0002605999761726707,0.00015779411478433758,0.001252477872185409,3.3754188279999653e-06,0.0002058891113847494,3.800586462020874,20.0,0.0,7000.0,7000.0,7000.0,7000.0,32.766,1.186,32.766,32.766,32.766,2023.26708984375,809.5403442382812,30.4278507232666,,False,
1783648248.4843833,2026-07-09T18:50:48,16746,20260709_185042,,,,,,arming,,,,,,,,,False,0.02016816847026348,-0.011462141759693623,0.9975893497467041,-0.6603138446807861,-0.7124481797218323,0.0776829943060875,-2.0,0.0,51.0,0.0,0.0,0.0015184213407337666,-6.30160648142919e-05,0.00011869955051224679,0.011261018924415112,-0.0022653890773653984,0.0008990744827315211,-0.38075360655784607,0.752547562122345,-5.7561785069992766e-05,0.00015779411478433758,0.001252477872185409,3.3754188279999653e-06,0.0002058891113847494,3.800586462020874,20.0,0.0,7000.0,7000.0,7000.0,7000.0,32.766,1.186,32.766,32.766,32.766,2023.26708984375,809.5403442382812,30.4278507232666,,False,
1783648248.4946012,2026-07-09T18:50:48,16756,20260709_185042,,,,,,arming,,,,,,,,,False,0.021127767860889435,-0.009001645259559155,1.0006966590881348,1.176130771636963,1.1459630727767944,-0.1609177440404892,4.0,3.0,24.0,0.0,0.0,0.0015184213407337666,-6.30160648142919e-05,0.00011869955051224679,0.011261018924415112,-0.0022653890773653984,0.0008990744827315211,-0.38075360655784607,0.752547562122345,-5.7561785069992766e-05,0.00015779411478433758,0.001252477872185409,3.3754188279999653e-06,0.0002058891113847494,3.800586462020874,20.0,0.0,7000.0,7000.0,7000.0,7000.0,32.766,1.186,32.766,32.766,32.766,2023.26708984375,809.5403442382812,30.4278507232666,,False,
1783648248.5048192,2026-07-09T18:50:48,16767,20260709_185042,,,,,,arming,,,,,,,,,False,0.018632400780916214,3.117641608696431e-05,1.0035607814788818,-1.4215867519378662,-1.3379195928573608,-0.12928593158721924,4.0,0.0,52.0,0.0,0.0,0.0011657983995974064,-3.064562406507321e-05,0.00016178532678168267,0.008824336342513561,-0.0022667977027595043,0.0012228303821757436,-0.3953486382961273,0.8092959523200989,0.00010009983816416934,0.00016178532678168267,0.0010824045166373253,3.3405005979147973e-06,0.00019658637756947428,3.800586462020874,20.0,0.0,7000.0,7000.0,7000.0,7000.0,32.766,1.116,32.766,32.766,32.766,2023.26708984375,809.5403442382812,30.423768997192383,,False,
1783648248.5149913,2026-07-09T18:50:48,16777,20260709_185042,,,,,,arming,,,,,,,,,False,0.019892366603016853,-0.008344205096364021,0.9988912343978882,1.0843794345855713,0.9036272168159485,-0.5385429859161377,-5.0,-1.0,48.0,0.0,0.0,0.0011657983995974064,-3.064562406507321e-05,0.00016178532678168267,0.008824336342513561,-0.0022667977027595043,0.0012228303821757436,-0.3953486382961273,0.8092959523200989,0.00010009983816416934,0.00016178532678168267,0.0010824045166373253,3.3405005979147973e-06,0.00019658637756947428,3.800586462020874,20.0,0.0,7000.0,7000.0,7000.0,7000.0,32.766,1.116,32.766,32.766,32.766,2023.26708984375,809.5403442382812,30.423768997192383,,False,
1783648248.5251486,2026-07-09T18:50:48,16787,20260709_185042,,,,,,arming,,,,,,,,,False,0.0128124188631773,-0.002069914946332574,1.0045313835144043,-1.11405611038208,-1.3837652206420898,-0.596169650554657,1.0,3.0,24.0,0.0,0.0,0.0013732702936977148,0.0003101331531070173,0.00020052725449204445,0.009951891377568245,0.0007613384514115751,0.0010318929562345147,-0.43786224722862244,0.808302640914917,0.001997031969949603,0.00016178532678168267,0.0010824045166373253,3.3405005979147973e-06,0.00019658637756947428,3.800586462020874,20.0,0.0,7000.0,7000.0,7000.0,7000.0,32.766,1.116,32.766,32.766,32.766,2023.26708984375,809.5403442382812,30.423768997192383,,False,
1783648248.5353098,2026-07-09T18:50:48,16797,20260709_185042,,,,,,arming,,,,,,,,,False,0.015341328456997871,-0.016786077991127968,0.997502863407135,0.29037511348724365,0.4065091013908386,-0.19645114243030548,-1.0,1.0,23.0,0.0,0.0,0.0013732702936977148,0.0003101331531070173,0.00020052725449204445,0.009951891377568245,0.0007613384514115751,0.0010318929562345147,-0.43786224722862244,0.808302640914917,0.001997031969949603,0.00016178532678168267,0.0010824045166373253,3.3405005979147973e-06,0.00019658637756947428,3.800586462020874,20.0,0.0,7000.0,7000.0,7000.0,7000.0,32.766,1.116,32.766,32.766,32.766,2023.26708984375,809.5403442382812,30.423768997192383,,False,
1783648248.5454776,2026-07-09T18:50:48,16807,20260709_185042,,,,,,arming,,,,,,,,,False,0.014424973167479038,-0.0034638235811144114,1.0043140649795532,-0.8674929738044739,-0.5013940930366516,-0.39523354172706604,1.0,-4.0,48.0,0.0,0.0,0.00017166008183266968,0.0003258826327510178,0.00013254147779662162,0.0017142590368166566,0.0008107118192128837,0.0009835081873461604,-0.43875637650489807,0.9331315159797668,0.0008087133755907416,0.00016178532678168267,0.0010824045166373253,3.3405005979147973e-06,0.00019658637756947428,3.800586462020874,20.0,0.0,7000.0,7000.0,7000.0,7000.0,32.766,1.116,32.766,32.766,32.766,2023.26708984375,809.5403442382812,30.423768997192383,,False,
1783648248.5557158,2026-07-09T18:50:48,16817,20260709_185042,,,,,,arming,,,,,,,,,False,0.022256260737776756,-0.019000884145498276,0.9951236844062805,0.5643675923347473,0.5626168847084045,-0.28353700041770935,3.0,3.0,49.0,0.0,0.0,0.00017166008183266968,0.0003258826327510178,0.00013254147779662162,0.0017142590368166566,0.0008107118192128837,0.0009835081873461604,-0.43875637650489807,0.9331315159797668,0.0008087133755907416,0.00014995528908912092,0.0007110725273378193,3.2910315894696396e-06,0.00019147599232383072,3.800586462020874,20.0,0.0,7000.0,7000.0,7000.0,7000.0,32.766,1.116,1.332,32.766,32.766,2023.26708984375,809.5403442382812,30.423768997192383,,False,
1783648248.5658677,2026-07-09T18:50:48,16827,20260709_185042,,,,,,arming,,,,,,,,,False,0.01184498518705368,-0.007231499534100294,1.0035789012908936,0.2553490102291107,0.24539686739444733,0.1497144103050232,-3.0,-3.0,51.0,0.0,0.0,0.0004277033731341362,-0.0007767713395878673,0.00016396056162193418,0.002722421893849969,-0.006333514582365751,0.0010785009944811463,-0.34587469696998596,0.9129256010055542,0.000448336242698133,0.00014995528908912092,0.0007110725273378193,3.2910315894696396e-06,0.00019147599232383072,3.800586462020874,20.0,0.0,7000.0,7000.0,7000.0,7000.0,32.766,1.116,1.332,32.766,32.766,2023.26708984375,809.5403442382812,30.423768997192383,,False,
1783648248.5760252,2026-07-09T18:50:48,16837,20260709_185042,,,,,,arming,,,,,,,,,False,0.02074563503265381,-0.012492626905441284,0.9995570778846741,-0.17319923639297485,-0.07523705065250397,0.01467214897274971,4.0,3.0,51.0,0.0,0.0,0.0004277033731341362,-0.0007767713395878673,0.00016396056162193418,0.002722421893849969,-0.006333514582365751,0.0010785009944811463,-0.34587469696998596,0.9129256010055542,0.000448336242698133,0.00014995528908912092,0.0007110725273378193,3.2910315894696396e-06,0.00019147599232383072,3.800586462020874,20.0,0.0,7000.0,7000.0,7000.0,7000.0,32.766,1.116,1.332,32.766,32.766,2023.26708984375,809.5403442382812,30.423768997192383,,False,
1783648248.586233,2026-07-09T18:50:48,16847,20260709_185042,,,,,,arming,,,,,,,,,False,0.02147587388753891,-0.011179323308169842,0.9966580867767334,1.3939229249954224,1.6726807355880737,-0.22280430793762207,-3.0,-3.0,26.0,0.0,0.0,0.0004036763566546142,-0.0010155128547921777,0.00011631911183940247,0.002003232715651393,-0.007910985499620438,0.0008393144817091525,-0.33260244131088257,0.9177826046943665,-4.601790351443924e-05,0.00014995528908912092,0.0007110725273378193,3.2910315894696396e-06,0.00019147599232383072,3.800586462020874,20.0,0.0,7000.0,7000.0,7000.0,7000.0,32.766,1.116,1.332,32.766,32.766,2023.26708984375,809.5403442382812,30.423768997192383,,False,
1783648248.5964298,2026-07-09T18:50:48,16857,20260709_185042,,,,,,arming,,,,,,,,,False,0.01005173847079277,-0.004260502755641937,1.0041173696517944,-1.0574393272399902,-1.6080434322357178,0.2744869887828827,-1.0,0.0,48.0,0.0,0.0,0.0004036763566546142,-0.0010155128547921777,0.00011631911183940247,0.002003232715651393,-0.007910985499620438,0.0008393144817091525,-0.33260244131088257,0.9177826046943665,-4.601790351443924e-05,0.00014995528908912092,0.0007110725273378193,3.2910315894696396e-06,0.00019147599232383072,3.800586462020874,20.0,0.0,7000.0,7000.0,7000.0,7000.0,32.766,1.116,1.332,32.766,32.766,2023.26708984375,809.5403442382812,30.423768997192383,,False,
1783648248.6067343,2026-07-09T18:50:48,16867,20260709_185042,,,,,,arming,,,,,,,,,False,0.020334478467702866,-0.011415934190154076,0.9883531332015991,0.8129494786262512,1.5512090921401978,0.12375148385763168,0.0,0.0,47.0,0.0,0.0,0.0011848309077322483,8.627954957773909e-05,0.00013898189354222268,0.0068329269997775555,-0.0013472330756485462,0.0004814145795535296,-0.42124778032302856,0.8544264435768127,0.002389803295955062,0.00013898189354222268,0.0003695524937938899,3.2484692837897455e-06,0.0001891440770123154,3.800586462020874,20.0,0.0,7000.0,7000.0,7000.0,7000.0,32.766,1.1360000000000001,1.332,32.766,32.766,2023.2069091796875,809.5457153320312,30.423768997192383,,False,
1783648248.6169047,2026-07-09T18:50:48,16880,20260709_185042,,,,,,arming,,,,,,,,,False,0.016828179359436035,-0.0008470079628750682,1.0025041103363037,-0.3073447346687317,-0.03433710336685181,0.27783849835395813,0.0,0.0,44.0,0.0,0.0,0.0013270529452711344,5.217990110395476e-05,0.0001476598990848288,0.0076400176621973515,-0.001913004438392818,0.00030000877450220287,-0.42124778032302856,0.8544264435768127,0.002389803295955062,0.00013898189354222268,0.0003695524937938899,3.2484692837897455e-06,0.0001891440770123154,3.800586462020874,20.0,0.0,7000.0,7000.0,7000.0,7000.0,32.766,1.1360000000000001,1.332,32.766,32.766,2023.2069091796875,809.5457153320312,30.423768997192383,,False,
1783648248.6270583,2026-07-09T18:50:48,16887,20260709_185042,,,,,,arming,,,,,,,,,False,0.02030862681567669,-0.01121935062110424,1.0005825757980347,0.36377763748168945,0.35287830233573914,0.77964186668396,4.0,3.0,28.0,0.0,0.0,0.0013270529452711344,5.217990110395476e-05,0.0001476598990848288,0.0076400176621973515,-0.001913004438392818,0.00030000877450220287,-0.4199720621109009,0.8514979481697083,0.0024274771567434072,0.00013898189354222268,0.0003695524937938899,3.2484692837897455e-06,0.0001891440770123154,3.800586462020874,20.0,0.0,7000.0,7000.0,7000.0,7000.0,32.766,1.1360000000000001,1.332,32.766,32.766,2023.2069091796875,809.5457153320312,30.423768997192383,,False,
1783648248.637207,2026-07-09T18:50:48,16897,20260709_185042,,,,,,arming,,,,,,,,,False,0.019155414775013924,-0.005708631593734026,1.007627010345459,-0.4991101324558258,-0.4791450798511505,0.7312215566635132,-8.0,1.0,25.0,0.0,0.0,0.0013270529452711344,5.217990110395476e-05,0.0001476598990848288,0.0076400176621973515,-0.001913004438392818,0.00030000877450220287,-0.4199720621109009,0.8514979481697083,0.0024274771567434072,0.00013898189354222268,0.0003695524937938899,3.2484692837897455e-06,0.0001891440770123154,3.800586462020874,20.0,0.0,7000.0,7000.0,7000.0,7000.0,32.766,1.1360000000000001,1.332,32.766,32.766,2023.2069091796875,809.5457153320312,30.423768997192383,,False,
1783648248.6473522,2026-07-09T18:50:48,16907,20260709_185042,,,,,,arming,,,,,,,,,False,0.019302045926451683,-0.010667930357158184,1.001845359802246,0.06867865473031998,-0.07391461730003357,0.5861386656761169,2.0,-5.0,49.0,0.0,0.0,7.222159183584154e-05,0.0012743477709591389,0.00010671936615835875,0.00025104513042606413,0.005761670880019665,-2.1954052499495447e-05,-0.5109931826591492,0.9460054636001587,0.0016133005265146494,0.00013898189354222268,0.0003695524937938899,3.2484692837897455e-06,0.0001891440770123154,3.800586462020874,20.0,0.0,7000.0,7000.0,7000.0,7000.0,32.766,1.1360000000000001,1.332,32.766,32.766,2023.2069091796875,809.5457153320312,30.423768997192383,,False,
1783648248.657512,2026-07-09T18:50:48,16917,20260709_185042,,,,,,arming,,,,,,,,,False,0.013709203340113163,-0.0026754378341138363,0.9981626272201538,0.17724795639514923,-0.02205202542245388,0.3045322895050049,3.0,1.0,52.0,0.0,0.0,7.222159183584154e-05,0.0012743477709591389,0.00010671936615835875,0.00025104513042606413,0.005761670880019665,-2.1954052499495447e-05,-0.5109931826591492,0.9460054636001587,0.0016133005265146494,0.00012290437007322907,0.0004518885107245296,3.2193884180742316e-06,0.00018834647198673338,3.800586462020874,20.0,0.0,7000.0,7000.0,7000.0,7000.0,32.766,1.1360000000000001,32.766,32.766,32.766,2023.2069091796875,809.5457153320312,30.423768997192383,,False,
1783648248.6677217,2026-07-09T18:50:48,16927,20260709_185042,,,,,,arming,,,,,,,,,False,0.014454890973865986,-0.010839790105819702,0.998894989490509,-0.25319111347198486,-0.41724908351898193,-0.26782265305519104,-1.0,0.0,53.0,0.0,0.0,0.0012171578127890825,-0.00022597622592002153,0.0001368924422422424,0.007047124207019806,-0.0032704451587051153,0.0007306624902412295,-0.40283510088920593,0.8746942281723022,0.0009641915676183999,0.00012290437007322907,0.0004518885107245296,3.2193884180742316e-06,0.00018834647198673338,3.800586462020874,20.0,0.0,7000.0,7000.0,7000.0,7000.0,32.766,1.1360000000000001,32.766,32.766,32.766,2023.2069091796875,809.5457153320312,30.423768997192383,,False,
