pc_time_s,pc_time_iso,cf_time_ms,session_id,motif_id,motif_type,motif_phase,rep_index,motif_param_json,flight_phase,cmd_vx_m_s,cmd_vy_m_s,cmd_yaw_rate_deg_s,cmd_height_m,cmd_vx_raw_m_s,cmd_vy_raw_m_s,cmd_yaw_rate_raw_deg_s,cmd_height_raw_m,safety_override_active,acc_x_g,acc_y_g,acc_z_g,gyro_x_dps,gyro_y_dps,gyro_z_dps,flow_delta_x_px,flow_delta_y_px,flow_squal,zrange_mm,zrange_m,x_m,y_m,z_m,vx_m_s,vy_m_s,vz_m_s,roll_deg,pitch_deg,yaw_deg,kalman_state_z_m,kalman_state_pz,kalman_var_z,kalman_var_pz,battery_v,battery_level_pct,pm_state,motor_m1,motor_m2,motor_m3,motor_m4,range_front_m,range_back_m,range_left_m,range_right_m,range_up_m,baro_asl_m,baro_pressure_hpa,baro_temp_c,safety_flag,should_land,event
1783704533.4124177,2026-07-10T10:28:53,,20260710_102848,,,,,,ground_idle,,,,,,,,,False,,,,,,,,,,,,,,,,,,,,,,,,,,,,,,,,,,,,,,,,,False,
1783704533.42283,2026-07-10T10:28:53,11980,20260710_102848,,,,,,ground_idle,,,,,,,,,False,0.012185671366751194,-0.0018079372821375728,1.001530647277832,-0.1782219409942627,0.2216518521308899,-0.027390945702791214,,,,,,,,,,,,,,,,,,,,,,,,,,,,,,,,,,,False,
1783704533.4329655,2026-07-10T10:28:53,11990,20260710_102848,,,,,,ground_idle,,,,,,,,,False,0.013544455170631409,-0.0011734755244106054,1.0019832849502563,0.021891232579946518,0.4465285539627075,-0.06502935290336609,-1.0,0.0,53.0,18.0,0.018,,,,,,,,,,,,,,,,,,,,,,,,,,,,,,False,
1783704533.4431071,2026-07-10T10:28:53,12000,20260710_102848,,,,,,ground_idle,,,,,,,,,False,0.013495455496013165,-0.00026559841353446245,1.0004252195358276,0.10856275260448456,-0.18578004837036133,-0.05327912047505379,0.0,0.0,59.0,36.0,0.036,0.000385532301152125,0.0013178583467379212,0.030047288164496422,0.0017322137719020247,0.0036772708408534527,0.01549668237566948,-0.0624665841460228,0.7067251205444336,-0.06186676397919655,,,,,,,,,,,,,,,,,,,,,False,
1783704533.4532566,2026-07-10T10:28:53,12010,20260710_102848,,,,,,ground_idle,,,,,,,,,False,0.013079704716801643,-6.0345530073391274e-05,0.9988518357276917,0.006347994785755873,0.13065747916698456,-0.10267743468284607,0.0,0.0,81.0,36.0,0.036,0.000385532301152125,0.0013178583467379212,0.030047288164496422,0.0017322137719020247,0.0036772708408534527,0.01549668237566948,-0.0624665841460228,0.7067251205444336,-0.06186676397919655,,,,,,,,,,,,,,,,,,,,,False,
1783704533.4633937,2026-07-10T10:28:53,12020,20260710_102848,,,,,,ground_idle,,,,,,,,,False,0.011984027922153473,-7.941590592963621e-05,0.9993193745613098,-0.06214774399995804,0.12088625878095627,0.11650729179382324,3.0,-2.0,78.0,36.0,0.036,0.0009303909027948976,0.0005410910816863179,0.030364040285348892,0.0045198481529951096,-0.0006135360454209149,0.015775956213474274,-0.02721475437283516,0.6839892268180847,-0.06220374256372452,,,,,,,,,,,,,,,,,,,,,False,
1783704533.473525,2026-07-10T10:28:53,12030,20260710_102848,,,,,,ground_idle,,,,,,,,,False,0.01421270240098238,-0.00099865160882473,0.9991976618766785,0.03814452514052391,-0.22816643118858337,-0.25443288683891296,-2.0,2.0,69.0,36.0,0.036,0.0009303909027948976,0.0005410910816863179,0.030364040285348892,0.0045198481529951096,-0.0006135360454209149,0.015775956213474274,-0.02721475437283516,0.6839892268180847,-0.06220374256372452,0.030681705102324486,0.015573733486235142,4.097201781405602e-06,0.00020558001415338367,4.14897346496582,90.0,0.0,0.0,0.0,0.0,0.0,32.766,0.316,0.329,0.28600000000000003,2.835,,,,,False,
1783704533.483669,2026-07-10T10:28:53,12040,20260710_102848,,,,,,ground_idle,,,,,,,,,False,0.01341583114117384,-0.0032124193385243416,1.0008268356323242,0.19517965614795685,-0.5245763659477234,-0.011748703196644783,3.0,-3.0,66.0,20.0,0.02,0.0004020545457024127,0.001090973848477006,0.030681705102324486,0.0016213003545999527,0.0021920055150985718,0.015592988580465317,-0.01709989830851555,0.6781023740768433,-0.0641641765832901,0.030681705102324486,0.015573733486235142,4.097201781405602e-06,0.00020558001415338367,4.14897346496582,90.0,0.0,0.0,0.0,0.0,0.0,32.766,0.316,0.329,0.28600000000000003,2.835,,,,,False,
1783704533.4938061,2026-07-10T10:28:53,12050,20260710_102848,,,,,,ground_idle,,,,,,,,,False,0.011903798207640648,-0.0009680790244601667,1.0025184154510498,-0.10164690017700195,-0.20246264338493347,-0.010603985749185085,0.0,-1.0,64.0,20.0,0.02,0.0004020545457024127,0.001090973848477006,0.030681705102324486,0.0016213003545999527,0.0021920055150985718,0.015592988580465317,-0.01709989830851555,0.6781023740768433,-0.0641641765832901,0.030681705102324486,0.015573733486235142,4.097201781405602e-06,0.00020558001415338367,4.14897346496582,90.0,0.0,0.0,0.0,0.0,0.0,32.766,0.316,0.329,0.28600000000000003,2.835,,,,,False,
1783704533.5039735,2026-07-10T10:28:53,12060,20260710_102848,,,,,,ground_idle,,,,,,,,,False,0.012425699271261692,-0.00161740742623806,1.001545786857605,0.255783349275589,-0.1044052243232727,-0.2834462523460388,-1.0,4.0,83.0,20.0,0.02,0.0004025394737254828,0.0005440633976832032,0.026331612840294838,0.0013971630251035094,-0.000678226409945637,-0.006593372672796249,-0.028703318908810616,0.7179369330406189,-0.06289204210042953,0.030681705102324486,0.015573733486235142,4.097201781405602e-06,0.00020558001415338367,4.14897346496582,90.0,0.0,0.0,0.0,0.0,0.0,32.766,0.316,0.329,0.28600000000000003,2.835,,,,,False,
1783704533.5141478,2026-07-10T10:28:53,12070,20260710_102848,,,,,,ground_idle,,,,,,,,,False,0.014633283019065857,-0.0017212961101904511,1.0011141300201416,0.11793465912342072,0.35595011711120605,-0.16312408447265625,-2.0,-1.0,69.0,20.0,0.02,0.0004025394737254828,0.0005440633976832032,0.026331612840294838,0.0013971630251035094,-0.000678226409945637,-0.006593372672796249,-0.028703318908810616,0.7179369330406189,-0.06289204210042953,0.030681705102324486,0.015573733486235142,4.097201781405602e-06,0.00020558001415338367,4.14897346496582,90.0,0.0,0.0,0.0,0.0,0.0,32.766,0.316,0.329,0.28600000000000003,2.835,,,,,False,
1783704533.524325,2026-07-10T10:28:53,12079,20260710_102848,,,,,,ground_idle,,,,,,,,,False,0.014633283019065857,-0.0017212961101904511,1.0011141300201416,0.11793465912342072,0.35595011711120605,-0.16312408447265625,2.0,5.0,74.0,20.0,0.02,-0.0005885496502742171,0.0005481949192471802,0.026208000257611275,-0.003831803100183606,-0.0008656359859742224,-0.006188901141285896,-0.025646178051829338,0.7556740641593933,-0.06398188322782516,0.026146601885557175,-0.00604123855009675,4.227677436574595e-06,0.0002107452746713534,4.154252052307129,90.0,0.0,0.0,0.0,0.0,0.0,0.304,0.313,0.331,0.28600000000000003,2.852,,,,,False,
1783704533.5345345,2026-07-10T10:28:53,12090,20260710_102848,,,,,,ground_idle,,,,,,,,,False,0.011382004246115685,-0.0018242261139675975,1.0015277862548828,-0.0097682885825634,-0.07019302994012833,0.052995435893535614,1.0,-4.0,50.0,20.0,0.02,-0.0005885496502742171,0.0005481949192471802,0.026208000257611275,-0.003831803100183606,-0.0008656359859742224,-0.006188901141285896,-0.025646178051829338,0.7556740641593933,-0.06398188322782516,0.026146601885557175,-0.00604123855009675,4.227677436574595e-06,0.0002107452746713534,4.154252052307129,90.0,0.0,0.0,0.0,0.0,0.0,0.304,0.313,0.331,0.28600000000000003,2.852,2018.8817138671875,809.929931640625,28.940753936767578,,False,
1783704533.5447419,2026-07-10T10:28:53,12100,20260710_102848,,,,,,ground_idle,,,,,,,,,False,0.013435217551887035,-0.0007109151920303702,1.0008456707000732,-0.0401429608464241,-0.26415857672691345,-0.010413922369480133,-3.0,0.0,56.0,34.0,0.034,0.0003512417315505445,0.0010324741015210748,0.029488176107406616,0.001330181141383946,0.001610928331501782,0.01193653792142868,-0.04455018416047096,0.7180500030517578,-0.06281570345163345,0.026146601885557175,-0.00604123855009675,4.227677436574595e-06,0.0002107452746713534,4.154252052307129,90.0,0.0,0.0,0.0,0.0,0.0,0.304,0.313,0.331,0.28600000000000003,2.852,2018.8817138671875,809.929931640625,28.940753936767578,,False,
1783704533.5549364,2026-07-10T10:28:53,12110,20260710_102848,,,,,,ground_idle,,,,,,,,,False,0.011788933537900448,-0.001794158248230815,0.9983676671981812,-0.15233635902404785,-0.01591956615447998,0.11307942122220993,-1.0,0.0,77.0,34.0,0.034,0.0003512417315505445,0.0010324741015210748,0.029488176107406616,0.001330181141383946,0.001610928331501782,0.01193653792142868,-0.04455018416047096,0.7180500030517578,-0.06281570345163345,0.026146601885557175,-0.00604123855009675,4.227677436574595e-06,0.0002107452746713534,4.154252052307129,90.0,0.0,0.0,0.0,0.0,0.0,0.304,0.313,0.331,0.28600000000000003,2.852,2018.8817138671875,809.929931640625,28.940753936767578,,False,
1783704533.56516,2026-07-10T10:28:53,12120,20260710_102848,,,,,,ground_idle,,,,,,,,,False,0.010794416069984436,-9.867324843071401e-05,0.9998348951339722,-0.40427377820014954,0.0451325997710228,-0.09323536604642868,3.0,-2.0,78.0,34.0,0.034,0.0008119026315398514,0.0005514801014214754,0.029732270166277885,0.0034933225251734257,-0.001125297392718494,0.012188469991087914,-0.023349322378635406,0.7009522318840027,-0.06240592151880264,0.026146601885557175,-0.00604123855009675,4.227677436574595e-06,0.0002107452746713534,4.154252052307129,90.0,0.0,0.0,0.0,0.0,0.0,0.304,0.313,0.331,0.28600000000000003,2.852,2018.8817138671875,809.929931640625,28.940753936767578,,False,
1783704533.5753565,2026-07-10T10:28:53,12130,20260710_102848,,,,,,ground_idle,,,,,,,,,False,0.01184600405395031,0.0005851013120263815,0.9999294877052307,0.0975051075220108,0.08164981752634048,-0.02376645617187023,0.0,6.0,61.0,34.0,0.034,0.0008119026315398514,0.0005514801014214754,0.029732270166277885,0.0034933225251734257,-0.001125297392718494,0.012188469991087914,-0.023349322378635406,0.7009522318840027,-0.06240592151880264,0.029980141669511795,0.012125358916819096,4.097179044038057e-06,0.0002055791555903852,4.14897346496582,90.0,0.0,0.0,0.0,0.0,0.0,0.304,0.313,0.331,32.766,2.852,2018.8817138671875,809.929931640625,28.940753936767578,,False,
1783704533.585538,2026-07-10T10:28:53,12140,20260710_102848,,,,,,ground_idle,,,,,,,,,False,0.015306061133742332,-0.00012584131036419421,1.00131094455719,-0.23971429467201233,-0.008950959891080856,-0.04484843835234642,0.0,-8.0,57.0,20.0,0.02,-0.000639294448774308,0.0005432505276985466,0.029980141669511795,-0.0041348896920681,-0.0011545057641342282,0.012072231620550156,-0.02527170442044735,0.6806941032409668,-0.06398467719554901,0.029980141669511795,0.012125358916819096,4.097179044038057e-06,0.0002055791555903852,4.14897346496582,90.0,0.0,0.0,0.0,0.0,0.0,0.304,0.313,0.331,32.766,2.852,2018.8817138671875,809.929931640625,28.940753936767578,,False,
1783704533.5957181,2026-07-10T10:28:53,12154,20260710_102848,,,,,,ground_idle,,,,,,,,,False,0.016236474737524986,-0.000506795069668442,1.0031055212020874,0.06851064413785934,-0.16404961049556732,0.0033687681425362825,2.0,0.0,79.0,20.0,0.02,-0.000639294448774308,0.0005432505276985466,0.029980141669511795,-0.0041348896920681,-0.0011545057641342282,0.012072231620550156,-0.02527170442044735,0.6806941032409668,-0.06398467719554901,0.029980141669511795,0.012125358916819096,4.097179044038057e-06,0.0002055791555903852,4.14897346496582,90.0,0.0,0.0,0.0,0.0,0.0,0.304,0.313,0.331,32.766,2.852,2018.8817138671875,809.929931640625,28.940753936767578,,False,
1783704533.6059282,2026-07-10T10:28:53,12164,20260710_102848,,,,,,ground_idle,,,,,,,,,False,0.013858228921890259,-0.00017985222802963108,1.0004280805587769,0.13441693782806396,-0.08672313392162323,-0.016567522659897804,-1.0,0.0,69.0,20.0,0.02,0.0006051409873180091,0.0007826682412996888,0.02588091604411602,0.002030160278081894,0.000154516936163418,-0.008426780812442303,-0.035127658396959305,0.7121964693069458,-0.06478933990001678,0.029980141669511795,0.012125358916819096,4.097179044038057e-06,0.0002055791555903852,4.14897346496582,90.0,0.0,0.0,0.0,0.0,0.0,0.304,0.313,0.331,32.766,2.852,2018.8817138671875,809.929931640625,28.940753936767578,,False,
1783704533.6161618,2026-07-10T10:28:53,12170,20260710_102848,,,,,,ground_idle,,,,,,,,,False,0.012435064651072025,-0.001668810029514134,0.9997146725654602,0.12257621437311172,0.24909336864948273,0.08401372283697128,-1.0,0.0,69.0,20.0,0.02,0.0006051409873180091,0.0007826682412996888,0.02588091604411602,0.002030160278081894,0.000154516936163418,-0.008426780812442303,-0.035127658396959305,0.7121964693069458,-0.06478933990001678,0.029980141669511795,0.012125358916819096,4.097179044038057e-06,0.0002055791555903852,4.14897346496582,90.0,0.0,0.0,0.0,0.0,0.0,0.304,0.313,0.331,32.766,2.852,2018.8817138671875,809.929931640625,28.940753936767578,,False,
1783704533.626369,2026-07-10T10:28:53,12184,20260710_102848,,,,,,ground_idle,,,,,,,,,False,0.012567892670631409,0.0007917100447230041,1.0013816356658936,0.10818053036928177,0.05321207270026207,-0.024682819843292236,-2.0,0.0,56.0,20.0,0.02,0.0005989340716041625,0.0005590238142758608,0.02571846731007099,0.0022522308863699436,-0.001054484280757606,-0.008044075220823288,-0.025728903710842133,0.7120321393013,-0.06519448012113571,0.02563798427581787,-0.008080067113041878,4.227670160616981e-06,0.00021074688993394375,4.14897346496582,90.0,0.0,0.0,0.0,0.0,0.0,0.299,0.306,0.326,32.766,2.839,2018.6629638671875,809.9495239257812,28.95305633544922,,False,
1783704533.636557,2026-07-10T10:28:53,12195,20260710_102848,,,,,,ground_idle,,,,,,,,,False,0.014890724793076515,0.0016908731777220964,1.001459002494812,0.06777248531579971,0.06279364973306656,0.022678015753626823,3.0,1.0,55.0,31.0,0.031,0.0003533103154040873,0.00034460119786672294,0.027893496677279472,0.0007854129071347415,-0.0020979552064090967,0.004287568852305412,-0.025728903710842133,0.7120321393013,-0.06519448012113571,0.02563798427581787,-0.008080067113041878,4.227670160616981e-06,0.00021074688993394375,4.14897346496582,90.0,0.0,0.0,0.0,0.0,0.0,0.299,0.306,0.326,32.766,2.839,2018.6629638671875,809.9495239257812,28.95305633544922,,False,
1783704533.6467466,2026-07-10T10:28:53,12204,20260710_102848,,,,,,ground_idle,,,,,,,,,False,0.014460760168731213,-0.0015230459393933415,1.0009801387786865,0.02518627978861332,0.17846499383449554,0.028153395280241966,-1.0,-1.0,78.0,31.0,0.031,0.0003533103154040873,0.00034460119786672294,0.027893496677279472,0.0007854129071347415,-0.0020979552064090967,0.004287568852305412,-0.016440480947494507,0.7211845517158508,-0.06545241922140121,0.02563798427581787,-0.008080067113041878,4.227670160616981e-06,0.00021074688993394375,4.14897346496582,90.0,0.0,0.0,0.0,0.0,0.0,0.299,0.306,0.326,32.766,2.839,2018.6629638671875,809.9495239257812,28.95305633544922,,False,
1783704533.6569703,2026-07-10T10:28:53,12215,20260710_102848,,,,,,ground_idle,,,,,,,,,False,0.012835017405450344,-0.0003270103479735553,1.0002506971359253,0.1937514990568161,0.2691403925418854,-0.114293172955513,0.0,0.0,82.0,31.0,0.031,0.0005953994696028531,0.0005629280349239707,0.02798275090754032,0.0023243010509759188,-0.0007164045237004757,0.004522689618170261,-0.016440480947494507,0.7211845517158508,-0.06545241922140121,0.02563798427581787,-0.008080067113041878,4.227670160616981e-06,0.00021074688993394375,4.14897346496582,90.0,0.0,0.0,0.0,0.0,0.0,0.299,0.306,0.326,32.766,2.839,2018.6629638671875,809.9495239257812,28.95305633544922,,False,
1783704533.6671493,2026-07-10T10:28:53,12224,20260710_102848,,,,,,ground_idle,,,,,,,,,False,0.010261924006044865,0.0005741859786212444,1.0007922649383545,0.13151487708091736,0.22827284038066864,0.0025359969586133957,1.0,0.0,69.0,31.0,0.031,0.0005953994696028531,0.0005629280349239707,0.02798275090754032,0.0023243010509759188,-0.0007164045237004757,0.004522689618170261,-0.025953998789191246,0.7071555256843567,-0.06581961363554001,0.02563798427581787,-0.008080067113041878,4.227670160616981e-06,0.00021074688993394375,4.14897346496582,90.0,0.0,0.0,0.0,0.0,0.0,0.299,0.306,0.326,32.766,2.839,2018.6629638671875,809.9495239257812,28.95305633544922,,False,
1783704533.6773465,2026-07-10T10:28:53,12235,20260710_102848,,,,,,ground_idle,,,,,,,,,False,0.013118918053805828,-9.896336268866435e-05,1.0015950202941895,-0.00514976354315877,-0.018884601071476936,-0.00048245314974337816,-1.0,-2.0,56.0,19.0,0.019,0.0006166451494209468,0.0003144507936667651,0.02807399071753025,0.002114467089995742,-0.001826972234994173,0.004649662412703037,-0.025953998789191246,0.7071555256843567,-0.06581961363554001,0.02807399071753025,0.0046227118000388145,4.09718040828011e-06,0.00020557957759592682,4.14897346496582,90.0,0.0,0.0,0.0,0.0,0.0,0.299,0.306,0.326,0.28300000000000003,2.839,2018.6629638671875,809.9495239257812,28.95305633544922,,False,
1783704533.6875134,2026-07-10T10:28:53,12244,20260710_102848,,,,,,ground_idle,,,,,,,,,False,0.013240901753306389,-0.0019155549816787243,1.001559853553772,-0.17348289489746094,0.12662799656391144,0.09610582888126373,0.0,-1.0,61.0,19.0,0.019,0.0006166451494209468,0.0003144507936667651,0.02807399071753025,0.002114467089995742,-0.001826972234994173,0.004649662412703037,-0.027172839269042015,0.6877745985984802,-0.06534962356090546,0.02807399071753025,0.0046227118000388145,4.09718040828011e-06,0.00020557957759592682,4.14897346496582,90.0,0.0,0.0,0.0,0.0,0.0,0.299,0.306,0.326,0.28300000000000003,2.839,2018.6629638671875,809.9495239257812,28.95305633544922,,False,
1783704533.6976948,2026-07-10T10:28:53,12255,20260710_102848,,,,,,ground_idle,,,,,,,,,False,0.012295582331717014,-0.0004437165043782443,1.0013048648834229,0.10518969595432281,-0.06482157856225967,0.27437323331832886,0.0,2.0,78.0,19.0,0.019,0.0008675199351273477,0.000571061740629375,0.024205375462770462,0.003058306872844696,-0.0005070318002253771,-0.013887694105505943,-0.027172839269042015,0.6877745985984802,-0.06534962356090546,0.02807399071753025,0.0046227118000388145,4.09718040828011e-06,0.00020557957759592682,4.14897346496582,90.0,0.0,0.0,0.0,0.0,0.0,0.299,0.306,0.326,0.28300000000000003,2.839,2018.6629638671875,809.9495239257812,28.95305633544922,,False,
1783704533.7078671,2026-07-10T10:28:53,12264,20260710_102848,,,,,,ground_idle,,,,,,,,,False,0.01223779283463955,-0.0015911055961623788,0.9995463490486145,-0.15635451674461365,-0.38702160120010376,0.03406745567917824,1.0,5.0,70.0,19.0,0.019,0.0008675199351273477,0.000571061740629375,0.024205375462770462,0.003058306872844696,-0.0005070318002253771,-0.013887694105505943,-0.0296647772192955,0.6978604197502136,-0.06412477791309357,0.02807399071753025,0.0046227118000388145,4.09718040828011e-06,0.00020557957759592682,4.14897346496582,90.0,0.0,0.0,0.0,0.0,0.0,0.299,0.306,0.326,0.28300000000000003,2.839,2018.6629638671875,809.9495239257812,28.95305633544922,,False,
1783704533.7180412,2026-07-10T10:28:53,12274,20260710_102848,,,,,,ground_idle,,,,,,,,,False,0.013236942701041698,-0.0024156454019248486,0.9988508224487305,-0.2877364456653595,-0.025444168597459793,0.05563001334667206,-3.0,-3.0,77.0,19.0,0.019,0.0008675199351273477,0.000571061740629375,0.024205375462770462,0.003058306872844696,-0.0005070318002253771,-0.013887694105505943,-0.0296647772192955,0.6978604197502136,-0.06412477791309357,0.02807399071753025,0.0046227118000388145,4.09718040828011e-06,0.00020557957759592682,4.14897346496582,90.0,0.0,0.0,0.0,0.0,0.0,0.299,0.306,0.326,0.28300000000000003,2.839,2018.6629638671875,809.9495239257812,28.95305633544922,,False,
1783704533.7282627,2026-07-10T10:28:53,12284,20260710_102848,,,,,,ground_idle,,,,,,,,,False,0.011629562824964523,-0.0016727648908272386,0.9999993443489075,-0.02583906799554825,0.1642354130744934,-0.15251505374908447,3.0,-3.0,53.0,19.0,0.019,0.00042404228588566184,0.0010153820039704442,0.023940443992614746,0.0007271179347299039,0.0018271795706823468,-0.013751796446740627,-0.05186127498745918,0.7156046032905579,-0.06444598734378815,0.023802470415830612,-0.013849725015461445,4.227657882438507e-06,0.0002107460895786062,4.154252052307129,90.0,0.0,0.0,0.0,0.0,0.0,0.297,32.766,0.331,0.28300000000000003,2.844,2018.6903076171875,809.9473266601562,28.960397720336914,,False,
1783704533.7384632,2026-07-10T10:28:53,12296,20260710_102848,,,,,,ground_idle,,,,,,,,,False,0.01306118443608284,-0.001207989640533924,0.9985299110412598,-0.2621294856071472,-0.10701781511306763,-0.10223330557346344,-1.0,0.0,51.0,34.0,0.034,0.0010356041602790356,0.000580113148316741,0.02809869684278965,0.003757085418328643,-0.0007277620024979115,0.009402050636708736,-0.03577568009495735,0.6869105100631714,-0.06501806527376175,0.023802470415830612,-0.013849725015461445,4.227657882438507e-06,0.0002107460895786062,4.154252052307129,90.0,0.0,0.0,0.0,0.0,0.0,0.297,32.766,0.331,0.28300000000000003,2.844,2018.6903076171875,809.9473266601562,28.960397720336914,,False,
1783704533.748723,2026-07-10T10:28:53,12304,20260710_102848,,,,,,ground_idle,,,,,,,,,False,0.012459290213882923,-0.0006124030333012342,0.9991636276245117,0.00819497648626566,0.33798500895500183,0.13458842039108276,0.0,2.0,65.0,34.0,0.034,0.0010356041602790356,0.000580113148316741,0.02809869684278965,0.003757085418328643,-0.0007277620024979115,0.009402050636708736,-0.03577568009495735,0.6869105100631714,-0.06501806527376175,0.023802470415830612,-0.013849725015461445,4.227657882438507e-06,0.0002107460895786062,4.154252052307129,90.0,0.0,0.0,0.0,0.0,0.0,0.297,32.766,0.331,0.28300000000000003,2.844,2018.6903076171875,809.9473266601562,28.960397720336914,,False,
1783704533.7589173,2026-07-10T10:28:53,12316,20260710_102848,,,,,,ground_idle,,,,,,,,,False,0.013507410883903503,-0.0012969356030225754,0.9997684955596924,-0.2339940071105957,0.14040856063365936,0.05067446455359459,-3.0,0.0,82.0,34.0,0.034,0.0006032806122675538,0.0012226231629028916,0.028286881744861603,0.001361449365504086,0.0026770075783133507,0.009182130917906761,-0.06353678554296494,0.7034086585044861,-0.06341817229986191,0.023802470415830612,-0.013849725015461445,4.227657882438507e-06,0.0002107460895786062,4.154252052307129,90.0,0.0,0.0,0.0,0.0,0.0,0.297,32.766,0.331,0.28300000000000003,2.844,2018.6903076171875,809.9473266601562,28.960397720336914,,False,
1783704533.7691243,2026-07-10T10:28:53,12327,20260710_102848,,,,,,ground_idle,,,,,,,,,False,0.013391826301813126,-0.00039470227784477174,0.9996358752250671,-0.11576610803604126,0.005313631612807512,0.16214215755462646,0.0,0.0,74.0,34.0,0.034,0.0006032806122675538,0.0012226231629028916,0.028286881744861603,0.001361449365504086,0.0026770075783133507,0.009182130917906761,-0.06353678554296494,0.7034086585044861,-0.06341817229986191,0.028470277786254883,0.009134807623922825,4.097193595953286e-06,0.00020557880634441972,4.154252052307129,90.0,0.0,0.0,0.0,0.0,0.0,0.297,32.766,0.331,0.28300000000000003,2.844,2018.6903076171875,809.9473266601562,28.960397720336914,,False,
1783704533.7798295,2026-07-10T10:28:53,12335,20260710_102848,,,,,,ground_idle,,,,,,,,,False,0.012249864637851715,-0.0014884782722219825,0.9988642930984497,-0.021657560020685196,0.3790452182292938,-0.022467220202088356,4.0,0.0,50.0,17.0,0.017,0.000632696261163801,0.0012761704856529832,0.028470277786254883,0.0015628280816599727,0.0027151969261467457,0.009151589125394821,-0.06353678554296494,0.7034086585044861,-0.06341817229986191,0.028470277786254883,0.009134807623922825,4.097193595953286e-06,0.00020557880634441972,4.14897346496582,90.0,0.0,0.0,0.0,0.0,0.0,0.297,32.766,0.331,0.276,2.844,2018.6903076171875,809.9473266601562,28.960397720336914,,False,
1783704533.7903712,2026-07-10T10:28:53,12344,20260710_102848,,,,,,ground_idle,,,,,,,,,False,0.013487075455486774,-0.0023644380271434784,1.0008788108825684,-0.14297378063201904,-0.08401074260473251,0.043609894812107086,0.0,0.0,66.0,17.0,0.017,0.000632696261163801,0.0012761704856529832,0.028470277786254883,0.0015628280816599727,0.0027151969261467457,0.009151589125394821,-0.024388274177908897,0.6988640427589417,-0.06276322156190872,0.028470277786254883,0.009134807623922825,4.097193595953286e-06,0.00020557880634441972,4.14897346496582,90.0,0.0,0.0,0.0,0.0,0.0,0.297,32.766,0.331,0.276,2.844,2018.6903076171875,809.9473266601562,28.960397720336914,,False,
1783704533.8006449,2026-07-10T10:28:53,12356,20260710_102848,,,,,,ground_idle,,,,,,,,,False,0.01559632271528244,-0.0019053859869018197,1.0015848875045776,0.15464946627616882,-0.03303352743387222,-0.06682674586772919,0.0,1.0,69.0,17.0,0.017,0.00045454094652086496,0.00032763538183644414,0.023641081526875496,0.000581569445785135,-0.002372168470174074,-0.014717702753841877,-0.02466699108481407,0.7087182998657227,-0.06202588602900505,0.028470277786254883,0.009134807623922825,4.097193595953286e-06,0.00020557880634441972,4.14897346496582,90.0,0.0,0.0,0.0,0.0,0.0,0.297,32.766,0.331,0.276,2.844,2018.6903076171875,809.9473266601562,28.960397720336914,,False,
1783704533.8109303,2026-07-10T10:28:53,12364,20260710_102848,,,,,,ground_idle,,,,,,,,,False,0.014494516886770725,-0.0006397250690497458,1.0001760721206665,-0.030458923429250717,-0.0045070163905620575,-0.11963669955730438,0.0,1.0,68.0,17.0,0.017,0.00045454094652086496,0.00032763538183644414,0.023641081526875496,0.000581569445785135,-0.002372168470174074,-0.014717702753841877,-0.02466699108481407,0.7087182998657227,-0.06202588602900505,0.028470277786254883,0.009134807623922825,4.097193595953286e-06,0.00020557880634441972,4.14897346496582,90.0,0.0,0.0,0.0,0.0,0.0,0.297,32.766,0.331,0.276,2.844,2018.6903076171875,809.9473266601562,28.960397720336914,,False,
1783704533.8211443,2026-07-10T10:28:53,12377,20260710_102848,,,,,,ground_idle,,,,,,,,,False,0.014487930573523045,0.0005060483235865831,1.0012547969818115,0.13398517668247223,0.18999403715133667,-0.060390546917915344,-1.0,-2.0,81.0,17.0,0.017,0.0006869686185382307,0.0005633102846331894,0.023351451382040977,0.0022952305153012276,-0.001030139857903123,-0.014514249749481678,-0.03654782474040985,0.6956380009651184,-0.06256221979856491,0.023206934332847595,-0.014418919570744038,4.227673343848437e-06,0.00021074719552416354,4.14897346496582,90.0,0.0,0.0,0.0,0.0,0.0,0.297,32.766,0.331,0.276,2.844,2018.6903076171875,809.9473266601562,28.960397720336914,,False,
1783704533.8313606,2026-07-10T10:28:53,12390,20260710_102848,,,,,,ground_idle,,,,,,,,,False,0.014253007248044014,-0.00042924925219267607,1.0002973079681396,-0.004130839835852385,-0.18245355784893036,0.007238571532070637,1.0,0.0,54.0,17.0,0.017,0.0006869686185382307,0.0005633102846331894,0.023351451382040977,0.0022952305153012276,-0.001030139857903123,-0.014514249749481678,-0.03654782474040985,0.6956380009651184,-0.06256221979856491,0.023206934332847595,-0.014418919570744038,4.227673343848437e-06,0.00021074719552416354,4.154252052307129,90.0,0.0,0.0,0.0,0.0,0.0,0.306,0.316,0.333,0.276,2.832,2018.701171875,809.9459838867188,28.972131729125977,,False,
1783704533.8415413,2026-07-10T10:28:53,12396,20260710_102848,,,,,,ground_idle,,,,,,,,,False,0.014253007248044014,-0.00042924925219267607,1.0002973079681396,-0.004130839835852385,-0.18245355784893036,0.007238571532070637,0.0,-2.0,55.0,32.0,0.032,0.0010978203499689698,0.0003331211337354034,0.02689399942755699,0.004520011600106955,-0.0018383481074124575,0.00570457149296999,-0.027968181297183037,0.6745421290397644,-0.06239236146211624,0.023206934332847595,-0.014418919570744038,4.227673343848437e-06,0.00021074719552416354,4.154252052307129,90.0,0.0,0.0,0.0,0.0,0.0,0.306,0.316,0.333,0.276,2.832,2018.701171875,809.9459838867188,28.972131729125977,,False,
1783704533.8517082,2026-07-10T10:28:53,12410,20260710_102848,,,,,,ground_idle,,,,,,,,,False,0.012553631328046322,0.00010958686470985413,1.0008059740066528,0.1064225286245346,0.15272308886051178,-0.043187227100133896,0.0,2.0,67.0,32.0,0.032,0.0010978203499689698,0.0003331211337354034,0.02689399942755699,0.004520011600106955,-0.0018383481074124575,0.00570457149296999,-0.027968181297183037,0.6745421290397644,-0.06239236146211624,0.023206934332847595,-0.014418919570744038,4.227673343848437e-06,0.00021074719552416354,4.154252052307129,90.0,0.0,0.0,0.0,0.0,0.0,0.306,0.316,0.333,0.276,2.832,2018.701171875,809.9459838867188,28.972131729125977,,False,
1783704533.8618674,2026-07-10T10:28:53,12416,20260710_102848,,,,,,ground_idle,,,,,,,,,False,0.012553631328046322,0.00010958686470985413,1.0008059740066528,0.1064225286245346,0.15272308886051178,-0.043187227100133896,-1.0,-1.0,77.0,32.0,0.032,0.0008666585199534893,0.0005524168373085558,0.027011800557374954,0.003362085437402129,-0.0005357158370316029,0.00579727441072464,-0.03825477510690689,0.6845308542251587,-0.06341984868049622,0.023206934332847595,-0.014418919570744038,4.227673343848437e-06,0.00021074719552416354,4.154252052307129,90.0,0.0,0.0,0.0,0.0,0.0,0.306,0.316,0.333,0.276,2.832,2018.701171875,809.9459838867188,28.972131729125977,,False,
1783704533.8720243,2026-07-10T10:28:53,12429,20260710_102848,,,,,,ground_idle,,,,,,,,,False,0.012253422290086746,-0.0018618074245750904,0.999186098575592,-0.12978582084178925,-0.212845578789711,-0.11906499415636063,1.0,3.0,74.0,32.0,0.032,0.0008666585199534893,0.0005524168373085558,0.027011800557374954,0.003362085437402129,-0.0005357158370316029,0.00579727441072464,-0.03825477510690689,0.6845308542251587,-0.06341984868049622,0.027131222188472748,0.005795944947749376,4.097181317774812e-06,0.00020557729294523597,4.14897346496582,90.0,0.0,0.0,0.0,0.0,0.0,0.306,0.316,0.333,0.281,2.832,2018.701171875,809.9459838867188,28.972131729125977,,False,
1783704533.8822174,2026-07-10T10:28:53,12440,20260710_102848,,,,,,ground_idle,,,,,,,,,False,0.013861647807061672,-0.0005234921118244529,1.0004949569702148,0.09755661338567734,-0.3717108368873596,-0.02748522162437439,-1.0,-1.0,54.0,20.0,0.02,0.00019170541781932116,0.00031315075466409326,0.027131222188472748,-0.0003463403263594955,-0.001738887862302363,0.005792972631752491,-0.03991629183292389,0.7036407589912415,-0.06309791654348373,0.027131222188472748,0.005795944947749376,4.097181317774812e-06,0.00020557729294523597,4.14897346496582,90.0,0.0,0.0,0.0,0.0,0.0,0.306,0.316,0.333,0.281,2.832,2018.701171875,809.9459838867188,28.972131729125977,,False,
1783704533.8925216,2026-07-10T10:28:53,12450,20260710_102848,,,,,,ground_idle,,,,,,,,,False,0.014446413144469261,0.0013944042148068547,1.0017032623291016,-0.2631988823413849,-0.19214998185634613,0.21643386781215668,0.0,0.0,66.0,20.0,0.02,0.00019170541781932116,0.00031315075466409326,0.027131222188472748,-0.0003463403263594955,-0.001738887862302363,0.005792972631752491,-0.03991629183292389,0.7036407589912415,-0.06309791654348373,0.027131222188472748,0.005795944947749376,4.097181317774812e-06,0.00020557729294523597,4.14897346496582,90.0,0.0,0.0,0.0,0.0,0.0,0.306,0.316,0.333,0.281,2.832,2018.701171875,809.9459838867188,28.972131729125977,,False,
1783704533.9026737,2026-07-10T10:28:53,12460,20260710_102848,,,,,,ground_idle,,,,,,,,,False,0.014134318567812443,-0.0009402595460414886,0.9995838403701782,0.1199946403503418,-0.046752844005823135,0.08996432274580002,1.0,-4.0,73.0,20.0,0.02,0.0013725913595408201,0.000321762403473258,0.024130625650286674,0.005826702807098627,-0.0018942691385746002,-0.00897593330591917,-0.030424239113926888,0.6669406890869141,-0.06291637569665909,0.027131222188472748,0.005795944947749376,4.097181317774812e-06,0.00020557729294523597,4.14897346496582,90.0,0.0,0.0,0.0,0.0,0.0,0.306,0.316,0.333,0.281,2.832,2018.701171875,809.9459838867188,28.972131729125977,,False,
1783704533.9128253,2026-07-10T10:28:53,12470,20260710_102848,,,,,,ground_idle,,,,,,,,,False,0.01297006756067276,-0.000999437877908349,0.9996588826179504,0.1251276731491089,-0.2871883511543274,-0.18991245329380035,0.0,4.0,71.0,20.0,0.02,0.0013725913595408201,0.000321762403473258,0.024130625650286674,0.005826702807098627,-0.0018942691385746002,-0.00897593330591917,-0.030424239113926888,0.6669406890869141,-0.06291637569665909,0.027131222188472748,0.005795944947749376,4.097181317774812e-06,0.00020557729294523597,4.14897346496582,90.0,0.0,0.0,0.0,0.0,0.0,0.306,0.316,0.333,0.281,2.832,2018.701171875,809.9459838867188,28.972131729125977,,False,
1783704533.9229805,2026-07-10T10:28:53,12479,20260710_102848,,,,,,ground_idle,,,,,,,,,False,0.01297006756067276,-0.000999437877908349,0.9996588826179504,0.1251276731491089,-0.2871883511543274,-0.18991245329380035,-1.0,0.0,84.0,20.0,0.02,0.0004477158945519477,0.0005477871745824814,0.023962249979376793,0.0010177812073379755,-0.000352566537912935,-0.008789743296802044,-0.04018823429942131,0.7112107276916504,-0.06290218979120255,0.023874420672655106,-0.008789262734353542,4.227685622026911e-06,0.00021074575488455594,4.14897346496582,90.0,0.0,0.0,0.0,0.0,0.0,0.3,32.766,0.333,0.281,2.84,2018.701171875,809.9459838867188,28.972131729125977,,False,
1783704533.9331577,2026-07-10T10:28:53,12490,20260710_102848,,,,,,ground_idle,,,,,,,,,False,0.014761382713913918,-5.42322413821239e-05,1.0009078979492188,0.16062210500240326,0.4012904465198517,-0.11563579738140106,0.0,-3.0,60.0,20.0,0.02,0.0004477158945519477,0.0005477871745824814,0.023962249979376793,0.0010177812073379755,-0.000352566537912935,-0.008789743296802044,-0.04018823429942131,0.7112107276916504,-0.06290218979120255,0.023874420672655106,-0.008789262734353542,4.227685622026911e-06,0.00021074575488455594,4.14897346496582,90.0,0.0,0.0,0.0,0.0,0.0,0.3,32.766,0.333,0.281,2.84,2018.7613525390625,809.9408569335938,28.97991180419922,,False,
1783704533.943339,2026-07-10T10:28:53,12500,20260710_102848,,,,,,ground_idle,,,,,,,,,False,0.012294521555304527,-0.0007436664891429245,1.0009183883666992,0.09361102432012558,0.10950087010860443,-0.054979246109724045,-2.0,3.0,52.0,28.0,0.028,0.00043576964526437223,0.0009875682881101966,0.025597291067242622,0.0009090254316106439,0.0019729866180568933,0.000902010768186301,-0.05778254196047783,0.7095544338226318,-0.06298612058162689,0.023874420672655106,-0.008789262734353542,4.227685622026911e-06,0.00021074575488455594,4.14897346496582,90.0,0.0,0.0,0.0,0.0,0.0,0.3,32.766,0.333,0.281,2.84,2018.7613525390625,809.9408569335938,28.97991180419922,,False,
1783704533.9535072,2026-07-10T10:28:53,12510,20260710_102848,,,,,,ground_idle,,,,,,,,,False,0.011406740173697472,-0.00025800071307457983,0.9996591210365295,-0.0681382343173027,-0.012827733531594276,0.04642338305711746,2.0,-4.0,66.0,28.0,0.028,0.00043576964526437223,0.0009875682881101966,0.025597291067242622,0.0009090254316106439,0.0019729866180568933,0.000902010768186301,-0.05778254196047783,0.7095544338226318,-0.06298612058162689,0.023874420672655106,-0.008789262734353542,4.227685622026911e-06,0.00021074575488455594,4.14897346496582,90.0,0.0,0.0,0.0,0.0,0.0,0.3,32.766,0.333,0.281,2.84,2018.7613525390625,809.9408569335938,28.97991180419922,,False,
1783704533.9636686,2026-07-10T10:28:53,12520,20260710_102848,,,,,,ground_idle,,,,,,,,,False,0.011891474016010761,0.001443921704776585,0.9987072944641113,-0.14859534800052643,-0.47500336170196533,-0.3513396978378296,0.0,2.0,80.0,28.0,0.028,0.0008597727864980698,0.0005534039228223264,0.025623975321650505,0.0030611215624958277,-0.00035166871384717524,0.0011603882303461432,-0.03962294012308121,0.6936959028244019,-0.06232341751456261,0.023874420672655106,-0.008789262734353542,4.227685622026911e-06,0.00021074575488455594,4.14897346496582,90.0,0.0,0.0,0.0,0.0,0.0,0.3,32.766,0.333,0.281,2.84,2018.7613525390625,809.9408569335938,28.97991180419922,,False,
1783704533.9738266,2026-07-10T10:28:53,12530,20260710_102848,,,,,,ground_idle,,,,,,,,,False,0.014553746208548546,4.959912257618271e-05,1.0004444122314453,-0.05218334123492241,0.1025870069861412,0.08586433529853821,1.0,-2.0,73.0,28.0,0.028,0.0008597727864980698,0.0005534039228223264,0.025623975321650505,0.0030611215624958277,-0.00035166871384717524,0.0011603882303461432,-0.03962294012308121,0.6936959028244019,-0.06232341751456261,0.025645844638347626,0.0010249280603602529,4.097155851923162e-06,0.00020557601237669587,4.14897346496582,90.0,0.0,0.0,0.0,0.0,0.0,0.3,32.766,0.333,0.28800000000000003,2.84,2018.7613525390625,809.9408569335938,28.97991180419922,,False,
1783704533.9839838,2026-07-10T10:28:53,12540,20260710_102848,,,,,,ground_idle,,,,,,,,,False,0.013473070226609707,-0.001086662639863789,1.0023915767669678,-0.016647472977638245,0.16495220363140106,-0.031178265810012817,-3.0,2.0,82.0,18.0,0.018,0.0013409138191491365,0.00032196217216551304,0.025645844638347626,0.0051409355364739895,-0.0012897117994725704,0.001086672069504857,-0.059481024742126465,0.6978541612625122,-0.06361785531044006,0.025645844638347626,0.0010249280603602529,4.097155851923162e-06,0.00020557601237669587,4.14897346496582,90.0,0.0,0.0,0.0,0.0,0.0,0.3,32.766,0.333,0.28800000000000003,2.84,2018.7613525390625,809.9408569335938,28.97991180419922,,False,
1783704533.994157,2026-07-10T10:28:53,12550,20260710_102848,,,,,,ground_idle,,,,,,,,,False,0.013349030166864395,0.00023153814254328609,1.0005358457565308,-0.011084669269621372,0.1060086041688919,0.05735702067613602,3.0,0.0,61.0,18.0,0.018,0.0013409138191491365,0.00032196217216551304,0.025645844638347626,0.0051409355364739895,-0.0012897117994725704,0.001086672069504857,-0.059481024742126465,0.6978541612625122,-0.06361785531044006,0.025645844638347626,0.0010249280603602529,4.097155851923162e-06,0.00020557601237669587,4.14897346496582,90.0,0.0,0.0,0.0,0.0,0.0,0.3,32.766,0.333,0.28800000000000003,2.84,2018.7613525390625,809.9408569335938,28.97991180419922,,False,
1783704534.0043538,2026-07-10T10:28:54,12560,20260710_102848,,,,,,ground_idle,,,,,,,,,False,0.011844757944345474,0.000653100898489356,1.001284122467041,0.09930963814258575,-0.25989431142807007,0.03841092437505722,-1.0,1.0,68.0,18.0,0.018,0.0006770768668502569,0.0005546435713768005,0.02233329974114895,0.0016032513231039047,-3.553504211595282e-05,-0.014523441903293133,-0.04132926091551781,0.7053784132003784,-0.06389803439378738,0.025645844638347626,0.0010249280603602529,4.097155851923162e-06,0.00020557601237669587,4.14897346496582,90.0,0.0,0.0,0.0,0.0,0.0,0.3,32.766,0.333,0.28800000000000003,2.84,2018.7613525390625,809.9408569335938,28.97991180419922,,False,
1783704534.0145557,2026-07-10T10:28:54,12570,20260710_102848,,,,,,ground_idle,,,,,,,,,False,0.010876488871872425,-0.0013241773704066873,0.9995774626731873,-0.15807987749576569,0.2858757972717285,-0.10043979436159134,1.0,-2.0,73.0,18.0,0.018,0.0006770768668502569,0.0005546435713768005,0.02233329974114895,0.0016032513231039047,-3.553504211595282e-05,-0.014523441903293133,-0.04132926091551781,0.7053784132003784,-0.06389803439378738,0.025645844638347626,0.0010249280603602529,4.097155851923162e-06,0.00020557601237669587,4.14897346496582,90.0,0.0,0.0,0.0,0.0,0.0,0.3,32.766,0.333,0.28800000000000003,2.84,2018.7613525390625,809.9408569335938,28.97991180419922,,False,
1783704534.0247517,2026-07-10T10:28:54,12581,20260710_102848,,,,,,ground_idle,,,,,,,,,False,0.012016043066978455,-0.0020083801355212927,1.0005885362625122,0.06465879082679749,-0.1802855283021927,0.07608940452337265,-4.0,1.0,83.0,18.0,0.018,0.0008951445925049484,0.0011855432530865073,0.022047009319067,0.0025838788133114576,0.0036103306338191032,-0.01435002963989973,-0.06961660832166672,0.6967308521270752,-0.06324964016675949,0.021903369575738907,-0.014402260072529316,4.2276674321328755e-06,0.0002107436303049326,4.154252052307129,90.0,0.0,0.0,0.0,0.0,0.0,0.3,32.766,0.33,0.28800000000000003,2.85,2018.5809326171875,809.9571533203125,28.990291595458984,,False,
1783704534.0349367,2026-07-10T10:28:54,12590,20260710_102848,,,,,,ground_idle,,,,,,,,,False,0.013535622507333755,0.00019698204414453357,1.0004568099975586,-0.04650380462408066,-0.1327798068523407,0.10352160036563873,0.0,2.0,57.0,18.0,0.018,0.0008951445925049484,0.0011855432530865073,0.022047009319067,0.0025838788133114576,0.0036103306338191032,-0.01435002963989973,-0.06961660832166672,0.6967308521270752,-0.06324964016675949,0.021903369575738907,-0.014402260072529316,4.2276674321328755e-06,0.0002107436303049326,4.154252052307129,90.0,0.0,0.0,0.0,0.0,0.0,0.3,32.766,0.33,0.28800000000000003,2.85,2018.5809326171875,809.9571533203125,28.990291595458984,,False,
1783704534.0451198,2026-07-10T10:28:54,12600,20260710_102848,,,,,,ground_idle,,,,,,,,,False,0.013064995408058167,-0.0007597873918712139,1.001469612121582,0.027695730328559875,0.2645851671695709,0.0770370364189148,0.0,-1.0,55.0,35.0,0.035,0.0006349741015583277,0.001185636268928647,0.027437569573521614,0.0009052836685441434,0.003210504073649645,0.015382246114313602,-0.06537488847970963,0.705166220664978,-0.0626685619354248,0.021903369575738907,-0.014402260072529316,4.2276674321328755e-06,0.0002107436303049326,4.154252052307129,90.0,0.0,0.0,0.0,0.0,0.0,0.3,32.766,0.33,0.28800000000000003,2.85,2018.5809326171875,809.9571533203125,28.990291595458984,,False,
1783704534.055328,2026-07-10T10:28:54,12610,20260710_102848,,,,,,ground_idle,,,,,,,,,False,0.011559673584997654,0.0003085228381678462,1.0002148151397705,0.1304655224084854,0.05191279202699661,0.273250937461853,4.0,0.0,71.0,35.0,0.035,0.0006349741015583277,0.001185636268928647,0.027437569573521614,0.0009052836685441434,0.003210504073649645,0.015382246114313602,-0.06537488847970963,0.705166220664978,-0.0626685619354248,0.021903369575738907,-0.014402260072529316,4.2276674321328755e-06,0.0002107436303049326,4.154252052307129,90.0,0.0,0.0,0.0,0.0,0.0,0.3,32.766,0.33,0.28800000000000003,2.85,2018.5809326171875,809.9571533203125,28.990291595458984,,False,
1783704534.0655212,2026-07-10T10:28:54,12624,20260710_102848,,,,,,ground_idle,,,,,,,,,False,0.010530463419854641,0.0006365612498484552,0.9997435212135315,0.11102984845638275,-0.07134242355823517,-0.18976609408855438,0.0,0.0,73.0,35.0,0.035,0.0006343101849779487,0.0005542834405787289,0.027752380818128586,0.0009486188646405935,-0.00018849516345653683,0.015607710927724838,-0.03626568987965584,0.7030252814292908,-0.06164439395070076,0.021903369575738907,-0.014402260072529316,4.2276674321328755e-06,0.0002107436303049326,4.154252052307129,90.0,0.0,0.0,0.0,0.0,0.0,0.3,32.766,0.33,0.28800000000000003,2.85,2018.5809326171875,809.9571533203125,28.990291595458984,,False,
1783704534.0756974,2026-07-10T10:28:54,12630,20260710_102848,,,,,,ground_idle,,,,,,,,,False,0.012288357131183147,0.0016793692484498024,0.9995822310447693,-0.05847902595996857,-0.15080317854881287,0.0796370729804039,0.0,0.0,73.0,35.0,0.035,0.0006343101849779487,0.0005542834405787289,0.027752380818128586,0.0009486188646405935,-0.00018849516345653683,0.015607710927724838,-0.03626568987965584,0.7030252814292908,-0.06164439395070076,0.028065137565135956,0.01562737114727497,4.097195414942689e-06,0.0002055785444099456,4.14897346496582,90.0,0.0,0.0,0.0,0.0,0.0,0.3,32.766,0.33,0.28300000000000003,2.85,2018.5809326171875,809.9571533203125,28.990291595458984,,False,
1783704534.0858645,2026-07-10T10:28:54,12644,20260710_102848,,,,,,ground_idle,,,,,,,,,False,0.011297186836600304,-0.00041943523683585227,1.0006452798843384,-0.03372810781002045,0.005961230956017971,-0.027513423934578896,0.0,0.0,71.0,21.0,0.021,0.0006513339467346668,0.0005522550200112164,0.028065137565135956,0.0006994740106165409,-4.973873615199409e-07,0.015637094154953957,-0.055653396993875504,0.7039651274681091,-0.06269022077322006,0.028065137565135956,0.01562737114727497,4.097195414942689e-06,0.0002055785444099456,4.14897346496582,90.0,0.0,0.0,0.0,0.0,0.0,0.3,32.766,0.33,0.28300000000000003,2.85,2018.5809326171875,809.9571533203125,28.990291595458984,,False,
1783704534.0960302,2026-07-10T10:28:54,12650,20260710_102848,,,,,,ground_idle,,,,,,,,,False,0.010505372658371925,0.0009006401523947716,1.0005661249160767,-0.1951620876789093,-0.03111371025443077,0.4010685086250305,0.0,0.0,71.0,21.0,0.021,0.0006513339467346668,0.0005522550200112164,0.028065137565135956,0.0006994740106165409,-4.973873615199409e-07,0.015637094154953957,-0.055653396993875504,0.7039651274681091,-0.06269022077322006,0.028065137565135956,0.01562737114727497,4.097195414942689e-06,0.0002055785444099456,4.14897346496582,90.0,0.0,0.0,0.0,0.0,0.0,0.3,32.766,0.33,0.28300000000000003,2.85,2018.5809326171875,809.9571533203125,28.990291595458984,,False,
1783704534.1062593,2026-07-10T10:28:54,12664,20260710_102848,,,,,,ground_idle,,,,,,,,,False,0.012206243351101875,-0.001726563205011189,1.0002710819244385,-0.11671682447195053,-0.16730129718780518,-0.2579651176929474,4.0,1.0,70.0,21.0,0.021,0.0006735179340466857,0.0012356091756373644,0.0252884142100811,0.0006096948636695743,0.0037587874103337526,0.0010019162436947227,-0.06576123088598251,0.702272891998291,-0.06095748767256737,0.028065137565135956,0.01562737114727497,4.097195414942689e-06,0.0002055785444099456,4.14897346496582,90.0,0.0,0.0,0.0,0.0,0.0,0.3,32.766,0.33,0.28300000000000003,2.85,2018.5809326171875,809.9571533203125,28.990291595458984,,False,
1783704534.1164784,2026-07-10T10:28:54,12674,20260710_102848,,,,,,ground_idle,,,,,,,,,False,0.015631413087248802,-0.0006111973780207336,1.0013694763183594,-0.005568965803831816,0.3215535283088684,0.16719314455986023,0.0,0.0,82.0,21.0,0.021,0.0006735179340466857,0.0012356091756373644,0.0252884142100811,0.0006096948636695743,0.0037587874103337526,0.0010019162436947227,-0.06576123088598251,0.702272891998291,-0.06095748767256737,0.028065137565135956,0.01562737114727497,4.097195414942689e-06,0.0002055785444099456,4.14897346496582,90.0,0.0,0.0,0.0,0.0,0.0,0.3,32.766,0.33,0.28300000000000003,2.85,2018.5809326171875,809.9571533203125,28.990291595458984,,False,
1783704534.1266448,2026-07-10T10:28:54,12681,20260710_102848,,,,,,ground_idle,,,,,,,,,False,0.013568704016506672,-0.00015052262460812926,0.9982389807701111,0.14848539233207703,0.3803875744342804,-0.06651250272989273,0.0,0.0,82.0,21.0,0.021,0.0004378598532639444,0.00031917495653033257,0.025315796956419945,-0.0008151457295753062,-0.001286592218093574,0.0011609294451773167,-0.02572830393910408,0.7095840573310852,-0.06090512126684189,0.025327863171696663,0.001258630771189928,4.227704266668297e-06,0.00021074854885227978,4.154252052307129,90.0,0.0,0.0,0.0,0.0,0.0,0.299,0.31,0.329,0.28300000000000003,2.848,2018.6466064453125,809.9509887695312,28.999921798706055,,False,
1783704534.1368139,2026-07-10T10:28:54,12695,20260710_102848,,,,,,ground_idle,,,,,,,,,False,0.012064377777278423,-0.0017764806980267167,0.9973191022872925,0.16121402382850647,0.24684597551822662,-0.1807926744222641,-2.0,3.0,55.0,32.0,0.032,0.0006527767982333899,0.0010169001761823893,0.028201650828123093,0.0006330752512440085,0.0025769565254449844,0.016083339229226112,-0.02572830393910408,0.7095840573310852,-0.06090512126684189,0.025327863171696663,0.001258630771189928,4.227704266668297e-06,0.00021074854885227978,4.154252052307129,90.0,0.0,0.0,0.0,0.0,0.0,0.299,0.31,0.329,0.28300000000000003,2.848,2018.6466064453125,809.9509887695312,28.999921798706055,,False,
1783704534.1469836,2026-07-10T10:28:54,12704,20260710_102848,,,,,,ground_idle,,,,,,,,,False,0.011880473233759403,0.0008716097800061107,1.0002915859222412,0.03063967451453209,0.052054889500141144,-0.04196302965283394,3.0,1.0,67.0,32.0,0.032,0.0006527767982333899,0.0010169001761823893,0.028201650828123093,0.0006330752512440085,0.0025769565254449844,0.016083339229226112,-0.05265035852789879,0.6939296126365662,-0.06209680810570717,0.025327863171696663,0.001258630771189928,4.227704266668297e-06,0.00021074854885227978,4.154252052307129,90.0,0.0,0.0,0.0,0.0,0.0,0.299,0.31,0.329,0.28300000000000003,2.848,2018.6466064453125,809.9509887695312,28.999921798706055,,False,
1783704534.1571515,2026-07-10T10:28:54,12715,20260710_102848,,,,,,ground_idle,,,,,,,,,False,0.012377388775348663,0.00031585400574840605,1.0010087490081787,0.025055699050426483,-0.00998845137655735,-0.03310980275273323,-4.0,0.0,76.0,32.0,0.032,0.00041721362504176795,0.0012361720437183976,0.0285246092826128,-0.0007173488265834749,0.0037394852843135595,0.01585640385746956,-0.05265035852789879,0.6939296126365662,-0.06209680810570717,0.025327863171696663,0.001258630771189928,4.227704266668297e-06,0.00021074854885227978,4.154252052307129,90.0,0.0,0.0,0.0,0.0,0.0,0.299,0.31,0.329,0.28300000000000003,2.848,2018.6466064453125,809.9509887695312,28.999921798706055,,False,
1783704534.1673431,2026-07-10T10:28:54,12724,20260710_102848,,,,,,ground_idle,,,,,,,,,False,0.013624251820147038,-0.002270094584673643,1.0006203651428223,-0.10628744959831238,0.2059105634689331,0.091175876557827,0.0,-1.0,78.0,32.0,0.032,0.00041721362504176795,0.0012361720437183976,0.0285246092826128,-0.0007173488265834749,0.0037394852843135595,0.01585640385746956,-0.060146622359752655,0.7022259831428528,-0.06151926890015602,0.025327863171696663,0.001258630771189928,4.227704266668297e-06,0.00021074854885227978,4.154252052307129,90.0,0.0,0.0,0.0,0.0,0.0,0.299,0.31,0.329,0.28300000000000003,2.848,2018.6466064453125,809.9509887695312,28.999921798706055,,False,
1783704534.1775112,2026-07-10T10:28:54,12735,20260710_102848,,,,,,ground_idle,,,,,,,,,False,0.014034795574843884,0.0015441131545230746,1.0010231733322144,0.08305055648088455,0.25015610456466675,0.07694622129201889,3.0,-2.0,82.0,18.0,0.018,0.0006520299357362092,0.001267684972845018,0.028844209387898445,0.0007236251258291304,0.0035430314019322395,0.01599007658660412,-0.060146622359752655,0.7022259831428528,-0.06151926890015602,0.028844209387898445,0.015983927994966507,4.097179044038057e-06,0.00020557989773806185,4.14897346496582,90.0,0.0,0.0,0.0,0.0,0.0,0.299,0.31,0.329,0.28400000000000003,2.848,2018.6466064453125,809.9509887695312,28.999921798706055,,False,
1783704534.1876798,2026-07-10T10:28:54,12744,20260710_102848,,,,,,ground_idle,,,,,,,,,False,0.013013661839067936,-0.002608497627079487,0.9999467730522156,-0.06925392150878906,-0.21299797296524048,0.09622003138065338,-1.0,7.0,74.0,18.0,0.018,0.0006520299357362092,0.001267684972845018,0.028844209387898445,0.0007236251258291304,0.0035430314019322395,0.01599007658660412,-0.028347047045826912,0.6692931056022644,-0.061306361109018326,0.028844209387898445,0.015983927994966507,4.097179044038057e-06,0.00020557989773806185,4.14897346496582,90.0,0.0,0.0,0.0,0.0,0.0,0.299,0.31,0.329,0.28400000000000003,2.848,2018.6466064453125,809.9509887695312,28.999921798706055,,False,
1783704534.1978648,2026-07-10T10:28:54,12754,20260710_102848,,,,,,ground_idle,,,,,,,,,False,0.01357098389416933,-0.0029641680885106325,0.9993085265159607,0.10435913503170013,-0.2841781675815582,0.04229377210140228,-1.0,-5.0,66.0,18.0,0.018,0.0006520299357362092,0.001267684972845018,0.028844209387898445,0.0007236251258291304,0.0035430314019322395,0.01599007658660412,-0.028347047045826912,0.6692931056022644,-0.061306361109018326,0.028844209387898445,0.015983927994966507,4.097179044038057e-06,0.00020557989773806185,4.14897346496582,90.0,0.0,0.0,0.0,0.0,0.0,0.299,0.31,0.329,0.28400000000000003,2.848,2018.6466064453125,809.9509887695312,28.999921798706055,,False,
1783704534.2080462,2026-07-10T10:28:54,12764,20260710_102848,,,,,,ground_idle,,,,,,,,,False,0.013797156512737274,0.00023830820282455534,1.0003159046173096,-0.4329613447189331,-0.0934327021241188,-0.03069327212870121,2.0,-3.0,77.0,18.0,0.018,0.0006806589080952108,0.0009883373277261853,0.024444350972771645,0.0011729261605069041,0.0020281539764255285,-0.006339938845485449,-0.04595882073044777,0.6899629235267639,-0.060203518718481064,0.028844209387898445,0.015983927994966507,4.097179044038057e-06,0.00020557989773806185,4.14897346496582,90.0,0.0,0.0,0.0,0.0,0.0,0.299,0.31,0.329,0.28400000000000003,2.848,2018.6466064453125,809.9509887695312,28.999921798706055,,False,
1783704534.2186801,2026-07-10T10:28:54,12776,20260710_102848,,,,,,ground_idle,,,,,,,,,False,0.014347478747367859,-0.0007294671377167106,1.0012661218643188,0.06938823312520981,-0.45620599389076233,0.0886436402797699,-2.0,3.0,78.0,18.0,0.018,0.000679894641507417,0.0009856245014816523,0.024324173107743263,0.001190705457702279,0.0017453402979299426,-0.006334042642265558,-0.04737665876746178,0.6935727000236511,-0.06078090891242027,0.028844209387898445,0.015983927994966507,4.097179044038057e-06,0.00020557989773806185,4.14897346496582,90.0,0.0,0.0,0.0,0.0,0.0,0.299,0.31,0.329,0.28400000000000003,2.848,2018.6466064453125,809.9509887695312,28.999921798706055,,False,
1783704534.2289054,2026-07-10T10:28:54,12784,20260710_102848,,,,,,ground_idle,,,,,,,,,False,0.013232072815299034,-0.0004414253344293684,1.0027154684066772,0.18535728752613068,0.35757240653038025,-0.10425674915313721,3.0,0.0,62.0,18.0,0.018,0.000679894641507417,0.0009856245014816523,0.024324173107743263,0.001190705457702279,0.0017453402979299426,-0.006334042642265558,-0.04737665876746178,0.6935727000236511,-0.06078090891242027,0.024261511862277985,-0.006212897598743439,4.227636509313015e-06,0.00021074649703223258,4.14897346496582,90.0,0.0,0.0,0.0,0.0,0.0,0.303,32.766,0.328,0.28400000000000003,2.846,2018.6302490234375,809.9525756835938,29.012845993041992,,False,
1783704534.239094,2026-07-10T10:28:54,12796,20260710_102848,,,,,,ground_idle,,,,,,,,,False,0.01091371476650238,-0.0013528399867936969,1.0004078149795532,0.10916783660650253,-0.1145729199051857,0.12851183116436005,0.0,0.0,57.0,34.0,0.034,0.0006518085720017552,0.000319408398354426,0.028403256088495255,0.0012505468912422657,-0.0018406895687803626,0.016050921753048897,-0.017322206869721413,0.691187858581543,-0.061076194047927856,0.024261511862277985,-0.006212897598743439,4.227636509313015e-06,0.00021074649703223258,4.14897346496582,90.0,0.0,0.0,0.0,0.0,0.0,0.303,32.766,0.328,0.28400000000000003,2.846,2018.6302490234375,809.9525756835938,29.012845993041992,,False,
1783704534.2493372,2026-07-10T10:28:54,12804,20260710_102848,,,,,,ground_idle,,,,,,,,,False,0.01248136442154646,-0.0008803840028122067,0.9991075992584229,-0.34588944911956787,0.14790606498718262,0.1769142895936966,0.0,0.0,69.0,34.0,0.034,0.0006518085720017552,0.000319408398354426,0.028403256088495255,0.0012505468912422657,-0.0018406895687803626,0.016050921753048897,-0.017322206869721413,0.691187858581543,-0.061076194047927856,0.024261511862277985,-0.006212897598743439,4.227636509313015e-06,0.00021074649703223258,4.14897346496582,90.0,0.0,0.0,0.0,0.0,0.0,0.303,32.766,0.328,0.28400000000000003,2.846,2018.6302490234375,809.9525756835938,29.012845993041992,,False,
1783704534.2595136,2026-07-10T10:28:54,12816,20260710_102848,,,,,,ground_idle,,,,,,,,,False,0.012637270614504814,0.000292562588583678,1.000267744064331,-0.12839378416538239,-0.2808886468410492,-0.04710926115512848,0.0,0.0,67.0,34.0,0.034,0.0006753431516699493,0.00028100033523514867,0.02872472256422043,0.0011620118748396635,-0.0019797328859567642,0.01604204624891281,-0.02093232423067093,0.6940306425094604,-0.06048676371574402,0.024261511862277985,-0.006212897598743439,4.227636509313015e-06,0.00021074649703223258,4.14897346496582,90.0,0.0,0.0,0.0,0.0,0.0,0.303,32.766,0.328,0.28400000000000003,2.846,2018.6302490234375,809.9525756835938,29.012845993041992,,False,
1783704534.2696934,2026-07-10T10:28:54,12828,20260710_102848,,,,,,ground_idle,,,,,,,,,False,0.013616489246487617,-0.001220480422489345,0.9993680119514465,-0.13006936013698578,-0.14559492468833923,-0.02942383475601673,0.0,-3.0,75.0,34.0,0.034,0.0006753431516699493,0.00028100033523514867,0.02872472256422043,0.0011620118748396635,-0.0019797328859567642,0.01604204624891281,-0.02093232423067093,0.6940306425094604,-0.06048676371574402,0.02904491126537323,0.015934787690639496,4.0971945054479875e-06,0.00020558142568916082,4.14897346496582,90.0,0.0,0.0,0.0,0.0,0.0,0.303,32.766,0.328,0.28400000000000003,2.846,2018.6302490234375,809.9525756835938,29.012845993041992,,False,
1783704534.2799027,2026-07-10T10:28:54,12836,20260710_102848,,,,,,ground_idle,,,,,,,,,False,0.013096116483211517,0.0005058467504568398,1.000022530555725,-0.14393073320388794,0.12924990057945251,-0.0330822728574276,-1.0,4.0,79.0,23.0,0.023,0.0014807446859776974,0.0002673643466550857,0.02904491126537323,0.0053909881971776485,-0.001868598978035152,0.015999171882867813,-0.0351746641099453,0.7089637517929077,-0.060804616659879684,0.02904491126537323,0.015934787690639496,4.0971945054479875e-06,0.00020558142568916082,4.14897346496582,90.0,0.0,0.0,0.0,0.0,0.0,0.303,32.766,0.328,32.766,2.846,2018.6302490234375,809.9525756835938,29.012845993041992,,False,
1783704534.2900808,2026-07-10T10:28:54,12844,20260710_102848,,,,,,ground_idle,,,,,,,,,False,0.013531457632780075,-0.0017537659732624888,1.0006258487701416,0.06188080832362175,-0.5674135088920593,-0.0517352819442749,0.0,-1.0,76.0,23.0,0.023,0.0014807446859776974,0.0002673643466550857,0.02904491126537323,0.0053909881971776485,-0.001868598978035152,0.015999171882867813,-0.0351746641099453,0.7089637517929077,-0.060804616659879684,0.02904491126537323,0.015934787690639496,4.0971945054479875e-06,0.00020558142568916082,4.14897346496582,90.0,0.0,0.0,0.0,0.0,0.0,0.303,32.766,0.328,32.766,2.846,2018.6302490234375,809.9525756835938,29.012845993041992,,False,
1783704534.300276,2026-07-10T10:28:54,12856,20260710_102848,,,,,,ground_idle,,,,,,,,,False,0.01316500548273325,0.0004131399909965694,0.9998429417610168,-0.06122927367687225,-0.0032036651391535997,0.14328274130821228,0.0,0.0,70.0,23.0,0.023,0.0006964646745473146,0.0005357396439649165,0.026728956028819084,0.0013694202061742544,-0.00038356712320819497,0.0034986957907676697,-0.03456268832087517,0.701636016368866,-0.06048581749200821,0.02904491126537323,0.015934787690639496,4.0971945054479875e-06,0.00020558142568916082,4.14897346496582,90.0,0.0,0.0,0.0,0.0,0.0,0.303,32.766,0.328,32.766,2.846,2018.6302490234375,809.9525756835938,29.012845993041992,,False,
1783704534.310457,2026-07-10T10:28:54,12864,20260710_102848,,,,,,ground_idle,,,,,,,,,False,0.010837391018867493,-0.00043880307930521667,0.997813880443573,-0.25089606642723083,0.05196068063378334,-0.2084992378950119,0.0,-2.0,75.0,23.0,0.023,0.0006964646745473146,0.0005357396439649165,0.026728956028819084,0.0013694202061742544,-0.00038356712320819497,0.0034986957907676697,-0.03456268832087517,0.701636016368866,-0.06048581749200821,0.02904491126537323,0.015934787690639496,4.0971945054479875e-06,0.00020558142568916082,4.14897346496582,90.0,0.0,0.0,0.0,0.0,0.0,0.303,32.766,0.328,32.766,2.846,2018.6302490234375,809.9525756835938,29.012845993041992,,False,
1783704534.320624,2026-07-10T10:28:54,12877,20260710_102848,,,,,,ground_idle,,,,,,,,,False,0.012623831629753113,-0.00015475643158424646,1.0015438795089722,-0.2933829724788666,0.3707168698310852,-0.11928264796733856,1.0,2.0,78.0,23.0,0.023,0.0006917586433701217,0.0002885899448301643,0.026800699532032013,0.0011140031274408102,-0.0015689660795032978,0.0033674403093755245,-0.02608831599354744,0.7009713649749756,-0.061314139515161514,0.02683497779071331,0.003473765216767788,4.227718363836175e-06,0.00021074812684673816,4.14897346496582,90.0,0.0,0.0,0.0,0.0,0.0,0.303,32.766,0.328,32.766,2.846,2018.6302490234375,809.9525756835938,29.012845993041992,,False,
1783704534.3307958,2026-07-10T10:28:54,12884,20260710_102848,,,,,,ground_idle,,,,,,,,,False,0.011527654714882374,-0.002415647031739354,1.0013002157211304,-0.17906929552555084,-0.4598167836666107,0.18183979392051697,-3.0,1.0,64.0,23.0,0.023,0.0006917586433701217,0.0002885899448301643,0.026800699532032013,0.0011140031274408102,-0.0015689660795032978,0.0033674403093755245,-0.02608831599354744,0.7009713649749756,-0.061314139515161514,0.02683497779071331,0.003473765216767788,4.227718363836175e-06,0.00021074812684673816,4.14897346496582,90.0,0.0,0.0,0.0,0.0,0.0,0.301,32.766,0.33,32.766,2.824,2018.7996826171875,809.9373779296875,29.018430709838867,,False,
1783704534.340956,2026-07-10T10:28:54,12896,20260710_102848,,,,,,ground_idle,,,,,,,,,False,0.014540553092956543,-0.00033515531686134636,1.0006916522979736,-0.0007430552504956722,0.0024725256953388453,-0.3228440582752228,-1.0,0.0,56.0,34.0,0.034,0.00040541603812016547,0.001278609735891223,0.029927851632237434,-0.0004192065098322928,0.0034419952426105738,0.01961435377597809,-0.06703910231590271,0.7148145437240601,-0.06270934641361237,0.02683497779071331,0.003473765216767788,4.227718363836175e-06,0.00021074812684673816,4.14897346496582,90.0,0.0,0.0,0.0,0.0,0.0,0.301,32.766,0.33,32.766,2.824,2018.7996826171875,809.9373779296875,29.018430709838867,,False,
1783704534.3511157,2026-07-10T10:28:54,12904,20260710_102848,,,,,,ground_idle,,,,,,,,,False,0.014023346826434135,0.0007467592367902398,0.9995192289352417,-0.13840170204639435,-0.1131909117102623,0.030686937272548676,2.0,0.0,76.0,34.0,0.034,0.00040541603812016547,0.001278609735891223,0.029927851632237434,-0.0004192065098322928,0.0034419952426105738,0.01961435377597809,-0.06703910231590271,0.7148145437240601,-0.06270934641361237,0.02683497779071331,0.003473765216767788,4.227718363836175e-06,0.00021074812684673816,4.14897346496582,90.0,0.0,0.0,0.0,0.0,0.0,0.301,32.766,0.33,32.766,2.824,2018.7996826171875,809.9373779296875,29.018430709838867,,False,
1783704534.3613045,2026-07-10T10:28:54,12920,20260710_102848,,,,,,ground_idle,,,,,,,,,False,0.014268582686781883,-0.001149093615822494,0.9991204142570496,-0.20463697612285614,0.28361642360687256,-0.014455761760473251,1.0,-4.0,67.0,34.0,0.034,0.001357993925921619,0.0005441113607957959,0.030325498431921005,0.004862973466515541,-0.00039321152144111693,0.019668079912662506,-0.03561299294233322,0.6747435927391052,-0.061804402619600296,0.02683497779071331,0.003473765216767788,4.227718363836175e-06,0.00021074812684673816,4.14897346496582,90.0,0.0,0.0,0.0,0.0,0.0,0.301,32.766,0.33,32.766,2.824,2018.7996826171875,809.9373779296875,29.018430709838867,,False,
1783704534.3715255,2026-07-10T10:28:54,12929,20260710_102848,,,,,,ground_idle,,,,,,,,,False,0.014268582686781883,-0.001149093615822494,0.9991204142570496,-0.20463697612285614,0.28361642360687256,-0.014455761760473251,0.0,2.0,79.0,34.0,0.034,0.001357993925921619,0.0005441113607957959,0.030325498431921005,0.004862973466515541,-0.00039321152144111693,0.019668079912662506,-0.03561299294233322,0.6747435927391052,-0.061804402619600296,0.03071930818259716,0.019348258152604103,4.0972063288791105e-06,0.00020557959214784205,4.14897346496582,90.0,0.0,0.0,0.0,0.0,0.0,0.301,32.766,0.33,0.28,2.824,2018.7996826171875,809.9373779296875,29.018430709838867,,False,
1783704534.3816826,2026-07-10T10:28:54,12940,20260710_102848,,,,,,ground_idle,,,,,,,,,False,0.015072932466864586,-0.002395056188106537,0.9984070062637329,-0.04314200580120087,0.11850224435329437,0.2446117401123047,0.0,2.0,74.0,17.0,0.017,0.0008981229620985687,0.0005433131009340286,0.03071930818259716,0.0023973467759788036,-0.00035390033735893667,0.01937892474234104,-0.03600709140300751,0.7137604355812073,-0.061678752303123474,0.03071930818259716,0.019348258152604103,4.0972063288791105e-06,0.00020557959214784205,4.14897346496582,90.0,0.0,0.0,0.0,0.0,0.0,0.301,32.766,0.33,0.28,2.824,2018.7996826171875,809.9373779296875,29.018430709838867,,False,
1783704534.3918443,2026-07-10T10:28:54,12944,20260710_102848,,,,,,ground_idle,,,,,,,,,False,0.015072932466864586,-0.002395056188106537,0.9984070062637329,-0.04314200580120087,0.11850224435329437,0.2446117401123047,0.0,-3.0,76.0,17.0,0.017,0.0008981229620985687,0.0005433131009340286,0.03071930818259716,0.0023973467759788036,-0.00035390033735893667,0.01937892474234104,-0.03600709140300751,0.7137604355812073,-0.061678752303123474,0.03071930818259716,0.019348258152604103,4.0972063288791105e-06,0.00020557959214784205,4.14897346496582,90.0,0.0,0.0,0.0,0.0,0.0,0.301,32.766,0.33,0.28,2.824,2018.7996826171875,809.9373779296875,29.018430709838867,,False,
1783704534.4020073,2026-07-10T10:28:54,12960,20260710_102848,,,,,,ground_idle,,,,,,,,,False,0.015172102488577366,-0.0003576742310542613,1.0019451379776,0.14550888538360596,-0.0120106041431427,-0.03216838464140892,0.0,-1.0,72.0,17.0,0.017,0.0013845269568264484,0.0005446564173325896,0.025107206776738167,0.005088752135634422,-0.0005076885572634637,-0.009403299540281296,-0.03722785785794258,0.6763664484024048,-0.05993029102683067,0.03071930818259716,0.019348258152604103,4.0972063288791105e-06,0.00020557959214784205,4.14897346496582,90.0,0.0,0.0,0.0,0.0,0.0,0.301,32.766,0.33,0.28,2.824,2018.7996826171875,809.9373779296875,29.018430709838867,,False,
1783704534.412169,2026-07-10T10:28:54,12970,20260710_102848,,,,,,ground_idle,,,,,,,,,False,0.014257099479436874,3.624949749791995e-05,0.9989102482795715,-0.17704273760318756,-0.15735244750976562,-0.06280344724655151,0.0,2.0,72.0,17.0,0.017,0.0013845269568264484,0.0005446564173325896,0.025107206776738167,0.005088752135634422,-0.0005076885572634637,-0.009403299540281296,-0.03722785785794258,0.6763664484024048,-0.05993029102683067,0.03071930818259716,0.019348258152604103,4.0972063288791105e-06,0.00020557959214784205,4.14897346496582,90.0,0.0,0.0,0.0,0.0,0.0,0.301,32.766,0.33,0.28,2.824,2018.7996826171875,809.9373779296875,29.018430709838867,,False,
1783704534.4225454,2026-07-10T10:28:54,12978,20260710_102848,,,,,,arming,,,,,,,,,False,0.014257099479436874,3.624949749791995e-05,0.9989102482795715,-0.17704273760318756,-0.15735244750976562,-0.06280344724655151,-2.0,3.0,75.0,17.0,0.017,0.00024124491028487682,0.0010020380141213536,0.024924110621213913,-0.0008088898612186313,0.0019106367835775018,-0.009320094250142574,-0.05658453330397606,0.725762128829956,-0.05930526927113533,0.024830369278788567,-0.009417024441063404,4.227681984048104e-06,0.00021074514370411634,4.154252052307129,90.0,0.0,0.0,0.0,0.0,0.0,0.301,32.766,0.33,0.28,2.824,2018.7996826171875,809.9373779296875,29.018430709838867,,False,
1783704534.432765,2026-07-10T10:28:54,12990,20260710_102848,,,,,,arming,,,,,,,,,False,0.013435425236821175,0.0013490921119228005,0.9989433288574219,0.006941562052816153,-0.1045045480132103,-0.13160988688468933,6.0,-1.0,58.0,17.0,0.017,0.00024124491028487682,0.0010020380141213536,0.024924110621213913,-0.0008088898612186313,0.0019106367835775018,-0.009320094250142574,-0.05658453330397606,0.725762128829956,-0.05930526927113533,0.024830369278788567,-0.009417024441063404,4.227681984048104e-06,0.00021074514370411634,4.154252052307129,90.0,0.0,0.0,0.0,0.0,0.0,0.297,32.766,0.332,0.28,2.844,2018.8160400390625,809.935791015625,29.026777267456055,,False,
1783704534.4430602,2026-07-10T10:28:54,13000,20260710_102848,,,,,,arming,,,,,,,,,False,0.01342218741774559,-0.00048272954882122576,0.9997067451477051,0.10582255572080612,-0.25919386744499207,0.21399807929992676,-3.0,-3.0,59.0,32.0,0.032,0.0011026345891878009,0.00032920631929300725,0.02785981446504593,0.003900568699464202,-0.0011315903393551707,0.006710145156830549,-0.03478427231311798,0.6890733242034912,-0.057605333626270294,0.024830369278788567,-0.009417024441063404,4.227681984048104e-06,0.00021074514370411634,4.154252052307129,90.0,0.0,0.0,0.0,0.0,0.0,0.297,32.766,0.332,0.28,2.844,2018.8160400390625,809.935791015625,29.026777267456055,,False,
1783704534.453339,2026-07-10T10:28:54,13010,20260710_102848,,,,,,arming,,,,,,,,,False,0.011831359006464481,6.296231731539592e-05,0.9992689490318298,0.16895164549350739,-0.3797597587108612,0.11417188495397568,0.0,1.0,75.0,32.0,0.032,0.0011026345891878009,0.00032920631929300725,0.02785981446504593,0.003900568699464202,-0.0011315903393551707,0.006710145156830549,-0.03478427231311798,0.6890733242034912,-0.057605333626270294,0.024830369278788567,-0.009417024441063404,4.227681984048104e-06,0.00021074514370411634,4.154252052307129,90.0,0.0,0.0,0.0,0.0,0.0,0.297,32.766,0.332,0.28,2.844,2018.8160400390625,809.935791015625,29.026777267456055,,False,
1783704534.4635582,2026-07-10T10:28:54,13020,20260710_102848,,,,,,arming,,,,,,,,,False,0.011879484169185162,-0.0007038075709715486,1.0005971193313599,0.07157445698976517,-0.0856785848736763,0.046338293701410294,-3.0,2.0,65.0,32.0,0.032,0.000420255382778123,0.0009877239353954792,0.02799525111913681,0.00022846003412269056,0.00263296440243721,0.006576135754585266,-0.06026385724544525,0.7217353582382202,-0.05707954615354538,0.024830369278788567,-0.009417024441063404,4.227681984048104e-06,0.00021074514370411634,4.154252052307129,90.0,0.0,0.0,0.0,0.0,0.0,0.297,32.766,0.332,0.28,2.844,2018.8160400390625,809.935791015625,29.026777267456055,,False,
1783704534.4737246,2026-07-10T10:28:54,13030,20260710_102848,,,,,,arming,,,,,,,,,False,0.012117775157094002,-0.0006311124307103455,1.0001879930496216,0.13864700496196747,-0.027554744854569435,0.08253854513168335,1.0,-4.0,81.0,32.0,0.032,0.000420255382778123,0.0009877239353954792,0.02799525111913681,0.00022846003412269056,0.00263296440243721,0.006576135754585266,-0.06026385724544525,0.7217353582382202,-0.05707954615354538,0.028129560872912407,0.006512979045510292,4.097170858585741e-06,0.0002055779186775908,4.14897346496582,90.0,0.0,7000.0,7000.0,7000.0,7000.0,0.297,32.766,0.332,0.28500000000000003,2.844,2018.8160400390625,809.935791015625,29.026777267456055,,False,
1783704534.4839213,2026-07-10T10:28:54,13040,20260710_102848,,,,,,arming,,,,,,,,,False,0.011436734348535538,-0.0008015001658350229,0.9987668395042419,0.23591984808444977,0.15700912475585938,-0.12272628396749496,0.0,3.0,74.0,19.0,0.019,0.0013439877657219768,0.0007772682001814246,0.028129560872912407,0.0047133187763392925,0.0014810938155278563,0.006568551994860172,-0.04561665281653404,0.7126087546348572,-0.05758652836084366,0.028129560872912407,0.006512979045510292,4.097170858585741e-06,0.0002055779186775908,4.14897346496582,90.0,0.0,7000.0,7000.0,7000.0,7000.0,0.297,32.766,0.332,0.28500000000000003,2.844,2018.8160400390625,809.935791015625,29.026777267456055,,False,
1783704534.4941084,2026-07-10T10:28:54,13050,20260710_102848,,,,,,arming,,,,,,,,,False,0.01225377805531025,-2.324176784895826e-05,1.0000847578048706,0.12451887130737305,0.2648595869541168,0.17560887336730957,1.0,4.0,61.0,19.0,0.019,0.0013439877657219768,0.0007772682001814246,0.028129560872912407,0.0047133187763392925,0.0014810938155278563,0.006568551994860172,-0.04561665281653404,0.7126087546348572,-0.05758652836084366,0.028129560872912407,0.006512979045510292,4.097170858585741e-06,0.0002055779186775908,4.14897346496582,90.0,0.0,7000.0,7000.0,7000.0,7000.0,0.297,32.766,0.332,0.28500000000000003,2.844,2018.8160400390625,809.935791015625,29.026777267456055,,False,
1783704534.504317,2026-07-10T10:28:54,13060,20260710_102848,,,,,,arming,,,,,,,,,False,0.013143934309482574,-0.0018927515484392643,0.9993458986282349,0.23584024608135223,0.020454272627830505,0.03417253866791725,-3.0,-3.0,67.0,19.0,0.019,0.0004668912151828408,0.0011874422198161483,0.02427787147462368,3.203397136530839e-05,0.0035785704385489225,-0.012462548911571503,-0.061321526765823364,0.7133128643035889,-0.057436686009168625,0.028129560872912407,0.006512979045510292,4.097170858585741e-06,0.0002055779186775908,4.14897346496582,90.0,0.0,7000.0,7000.0,7000.0,7000.0,0.297,32.766,0.332,0.28500000000000003,2.844,2018.8160400390625,809.935791015625,29.026777267456055,,False,
1783704534.5145154,2026-07-10T10:28:54,13070,20260710_102848,,,,,,arming,,,,,,,,,False,0.012798021547496319,-0.0019647504668682814,0.9979373812675476,0.052117593586444855,0.04299177601933479,0.007291771937161684,0.0,-1.0,75.0,19.0,0.019,0.0004668912151828408,0.0011874422198161483,0.02427787147462368,3.203397136530839e-05,0.0035785704385489225,-0.012462548911571503,-0.061321526765823364,0.7133128643035889,-0.057436686009168625,0.028129560872912407,0.006512979045510292,4.097170858585741e-06,0.0002055779186775908,4.14897346496582,90.0,0.0,7000.0,7000.0,7000.0,7000.0,0.297,32.766,0.332,0.28500000000000003,2.844,2018.8160400390625,809.935791015625,29.026777267456055,,False,
1783704534.5246913,2026-07-10T10:28:54,13079,20260710_102848,,,,,,arming,,,,,,,,,False,0.012798021547496319,-0.0019647504668682814,0.9979373812675476,0.052117593586444855,0.04299177601933479,0.007291771937161684,3.0,0.0,72.0,19.0,0.019,0.0006827015313319862,0.0005457298248074949,0.02403348684310913,0.0011446945136412978,-0.00015298198559321463,-0.012477269396185875,-0.028927156701683998,0.7036460638046265,-0.05831638723611832,0.02390797808766365,-0.012637780979275703,4.227640147291822e-06,0.0002107465552398935,4.14897346496582,90.0,0.0,7000.0,7000.0,7000.0,7000.0,0.299,0.313,0.333,0.28500000000000003,2.845,2018.8160400390625,809.935791015625,29.026777267456055,,False,
1783704534.5348868,2026-07-10T10:28:54,13090,20260710_102848,,,,,,arming,,,,,,,,,False,0.011543438769876957,-0.0012038114946335554,1.0021108388900757,-0.09033571928739548,0.4253503084182739,-0.1765676587820053,-2.0,0.0,57.0,19.0,0.019,0.0006827015313319862,0.0005457298248074949,0.02403348684310913,0.0011446945136412978,-0.00015298198559321463,-0.012477269396185875,-0.028927156701683998,0.7036460638046265,-0.05831638723611832,0.02390797808766365,-0.012637780979275703,4.227640147291822e-06,0.0002107465552398935,4.14897346496582,90.0,0.0,7000.0,7000.0,7000.0,7000.0,0.299,0.313,0.333,0.28500000000000003,2.845,2018.77783203125,809.939453125,29.03631591796875,,False,
1783704534.5450864,2026-07-10T10:28:54,13100,20260710_102848,,,,,,arming,,,,,,,,,False,0.01383540965616703,0.00019415955466683954,1.0019679069519043,-0.053674593567848206,-0.07478733360767365,-0.22987046837806702,2.0,1.0,59.0,36.0,0.036,0.0004211070481687784,0.0005578386480920017,0.029021980240941048,-0.0005216429126448929,-0.00025763563462533057,0.01494584884494543,-0.028060751035809517,0.7078560590744019,-0.0574459582567215,0.02390797808766365,-0.012637780979275703,4.227640147291822e-06,0.0002107465552398935,4.14897346496582,90.0,0.0,7000.0,7000.0,7000.0,7000.0,0.299,0.313,0.333,0.28500000000000003,2.845,2018.77783203125,809.939453125,29.03631591796875,,False,
1783704534.555348,2026-07-10T10:28:54,13114,20260710_102848,,,,,,arming,,,,,,,,,False,0.011959700845181942,0.0018662911606952548,1.001511812210083,0.06118260324001312,-0.1472548097372055,-0.11562242358922958,2.0,0.0,68.0,36.0,0.036,0.0004211070481687784,0.0005578386480920017,0.029021980240941048,-0.0005216429126448929,-0.00025763563462533057,0.01494584884494543,-0.028060751035809517,0.7078560590744019,-0.0574459582567215,0.02390797808766365,-0.012637780979275703,4.227640147291822e-06,0.0002107465552398935,4.14897346496582,90.0,0.0,7000.0,7000.0,7000.0,7000.0,0.299,0.313,0.333,0.28500000000000003,2.845,2018.77783203125,809.939453125,29.03631591796875,,False,
1783704534.5655525,2026-07-10T10:28:54,13124,20260710_102848,,,,,,arming,,,,,,,,,False,0.012038935907185078,-0.0006796583184041083,1.0024287700653076,-0.04433734342455864,0.30322083830833435,0.5829674005508423,-2.0,0.0,77.0,36.0,0.036,0.0006283179973252118,0.000556143291760236,0.029327761381864548,0.0005828608991578221,-0.00031515027512796223,0.015381448902189732,-0.02624134160578251,0.6998634338378906,-0.058053284883499146,0.02390797808766365,-0.012637780979275703,4.227640147291822e-06,0.0002107465552398935,4.14897346496582,90.0,0.0,7000.0,7000.0,7000.0,7000.0,0.299,0.313,0.333,0.28500000000000003,2.845,2018.77783203125,809.939453125,29.03631591796875,,False,
1783704534.5757353,2026-07-10T10:28:54,13130,20260710_102848,,,,,,arming,,,,,,,,,False,0.01176852360367775,-0.0002792890300042927,0.9988200664520264,-0.0828331708908081,-0.057950980961322784,0.27857959270477295,-2.0,0.0,77.0,36.0,0.036,0.0006283179973252118,0.000556143291760236,0.029327761381864548,0.0005828608991578221,-0.00031515027512796223,0.015381448902189732,-0.02624134160578251,0.6998634338378906,-0.058053284883499146,0.029639460146427155,0.015799473971128464,4.097204055142356e-06,0.0002055804361589253,4.127859115600586,90.0,0.0,7000.0,7000.0,7000.0,7000.0,0.299,0.313,0.333,0.28300000000000003,2.845,2018.77783203125,809.939453125,29.03631591796875,,False,
1783704534.5859027,2026-07-10T10:28:54,13144,20260710_102848,,,,,,arming,,,,,,,,,False,0.01285515446215868,0.000880019913893193,0.9984728097915649,0.19570110738277435,0.21510928869247437,0.362234503030777,-1.0,-3.0,63.0,21.0,0.021,0.0006360951811075211,0.0009898846037685871,0.029639460146427155,0.00047382546472363174,0.0021897924598306417,0.015804678201675415,-0.035006530582904816,0.733027458190918,-0.05794881656765938,0.029639460146427155,0.015799473971128464,4.097204055142356e-06,0.0002055804361589253,4.127859115600586,90.0,0.0,7000.0,7000.0,7000.0,7000.0,0.299,0.313,0.333,0.28300000000000003,2.845,2018.77783203125,809.939453125,29.03631591796875,,False,
1783704534.5960746,2026-07-10T10:28:54,13150,20260710_102848,,,,,,arming,,,,,,,,,False,0.014434975571930408,-0.00016601310926489532,0.9972973465919495,0.08473866432905197,0.3520793616771698,0.23925304412841797,-1.0,-3.0,63.0,21.0,0.021,0.0006360951811075211,0.0009898846037685871,0.029639460146427155,0.00047382546472363174,0.0021897924598306417,0.015804678201675415,-0.035006530582904816,0.733027458190918,-0.05794881656765938,0.029639460146427155,0.015799473971128464,4.097204055142356e-06,0.0002055804361589253,4.127859115600586,90.0,0.0,7000.0,7000.0,7000.0,7000.0,0.299,0.313,0.333,0.28300000000000003,2.845,2018.77783203125,809.939453125,29.03631591796875,,False,
1783704534.6065128,2026-07-10T10:28:54,13160,20260710_102848,,,,,,arming,,,,,,,,,False,0.0129780825227499,-0.002004034584388137,0.9985160231590271,-0.4245339334011078,-0.5652984380722046,2.040125608444214,1.0,-4.0,76.0,21.0,0.021,0.0012843461008742452,0.0007476144237443805,0.026185115799307823,0.004078402183949947,0.0008824614924378693,-0.002225693315267563,-0.029612714424729347,0.6639743447303772,-0.06105969846248627,0.029639460146427155,0.015799473971128464,4.097204055142356e-06,0.0002055804361589253,4.127859115600586,90.0,0.0,7000.0,7000.0,7000.0,7000.0,0.299,0.313,0.333,0.28300000000000003,2.845,2018.77783203125,809.939453125,29.03631591796875,,False,
1783704534.616728,2026-07-10T10:28:54,13174,20260710_102848,,,,,,arming,,,,,,,,,False,0.013812811113893986,-0.0006770415348000824,0.997279167175293,-0.5305094122886658,0.2731435298919678,1.3171014785766602,2.0,8.0,66.0,21.0,0.021,0.0012843461008742452,0.0007476144237443805,0.026185115799307823,0.004078402183949947,0.0008824614924378693,-0.002225693315267563,-0.029612714424729347,0.6639743447303772,-0.06105969846248627,0.029639460146427155,0.015799473971128464,4.097204055142356e-06,0.0002055804361589253,4.127859115600586,90.0,0.0,7000.0,7000.0,7000.0,7000.0,0.299,0.313,0.333,0.28300000000000003,2.845,2018.77783203125,809.939453125,29.03631591796875,,False,
1783704534.6269054,2026-07-10T10:28:54,13184,20260710_102848,,,,,,arming,,,,,,,,,False,0.012219379656016827,0.0006211266154423356,1.0027546882629395,-0.22453054785728455,-0.03388489410281181,-0.1728358417749405,0.0,-4.0,64.0,21.0,0.021,-0.00039144442416727543,0.00032916603959165514,0.02615024521946907,-0.0051780687645077705,-0.0015596509911119938,-0.002500171074643731,-0.014262838289141655,0.7402480244636536,-0.054813385009765625,0.02612520568072796,-0.0024420523550361395,4.2276915337424725e-06,0.00021074834512546659,4.1331377029418945,90.0,0.0,7000.0,7000.0,7000.0,7000.0,0.303,0.315,0.327,0.28300000000000003,2.848,2018.7723388671875,809.9401245117188,29.044498443603516,,False,
1783704534.6376977,2026-07-10T10:28:54,13195,20260710_102848,,,,,,arming,,,,,,,,,False,0.012957523576915264,0.0010219723917543888,1.0064408779144287,0.5014713406562805,-0.3644780218601227,-0.06142064556479454,-3.0,-1.0,63.0,31.0,0.031,0.0006467038183473051,0.0009636197937652469,0.028210705146193504,0.0009312877082265913,0.002032505813986063,0.008765053004026413,-0.014262838289141655,0.7402480244636536,-0.054813385009765625,0.02612520568072796,-0.0024420523550361395,4.2276915337424725e-06,0.00021074834512546659,4.1331377029418945,90.0,0.0,7000.0,7000.0,7000.0,7000.0,0.303,0.315,0.327,0.28300000000000003,2.848,2018.7723388671875,809.9401245117188,29.044498443603516,,False,
1783704534.6479588,2026-07-10T10:28:54,13204,20260710_102848,,,,,,arming,,,,,,,,,False,0.014691730961203575,0.005498626735061407,1.0022459030151367,-0.5260388851165771,0.0541350431740284,-0.16128934919834137,1.0,-2.0,72.0,31.0,0.031,0.0006467038183473051,0.0009636197937652469,0.028210705146193504,0.0009312877082265913,0.002032505813986063,0.008765053004026413,-0.04126672074198723,0.6964028477668762,-0.05929967388510704,0.02612520568072796,-0.0024420523550361395,4.2276915337424725e-06,0.00021074834512546659,4.1331377029418945,90.0,0.0,7000.0,7000.0,7000.0,7000.0,0.303,0.315,0.327,0.28300000000000003,2.848,2018.7723388671875,809.9401245117188,29.044498443603516,,False,
1783704534.6581726,2026-07-10T10:28:54,13215,20260710_102848,,,,,,arming,,,,,,,,,False,0.012482759542763233,-0.004716938827186823,0.9989081621170044,-0.055741891264915466,-0.26597657799720764,0.29746013879776,-1.0,1.0,71.0,31.0,0.031,0.0008366707479581237,0.0009604399092495441,0.02839331515133381,0.002180226380005479,0.00242207502014935,0.00922227930277586,-0.04126672074198723,0.6964028477668762,-0.05929967388510704,0.02612520568072796,-0.0024420523550361395,4.2276915337424725e-06,0.00021074834512546659,4.1331377029418945,90.0,0.0,7000.0,7000.0,7000.0,7000.0,0.303,0.315,0.327,0.28300000000000003,2.848,2018.7723388671875,809.9401245117188,29.044498443603516,,False,
1783704534.6685228,2026-07-10T10:28:54,13224,20260710_102848,,,,,,arming,,,,,,,,,False,0.012121421284973621,0.001488954876549542,0.9985873699188232,-0.11171688884496689,0.5647889971733093,-0.7705138921737671,0.0,2.0,80.0,31.0,0.031,0.0008366707479581237,0.0009604399092495441,0.02839331515133381,0.002180226380005479,0.00242207502014935,0.00922227930277586,-0.04399387165904045,0.6947190761566162,-0.05580314248800278,0.02612520568072796,-0.0024420523550361395,4.2276915337424725e-06,0.00021074834512546659,4.1331377029418945,90.0,0.0,7000.0,7000.0,7000.0,7000.0,0.303,0.315,0.327,0.28300000000000003,2.848,2018.7723388671875,809.9401245117188,29.044498443603516,,False,
1783704534.6787345,2026-07-10T10:28:54,13236,20260710_102848,,,,,,arming,,,,,,,,,False,0.01838430017232895,-0.004215783439576626,1.0000126361846924,0.5714627504348755,-0.19657503068447113,-0.6852419972419739,1.0,0.0,68.0,22.0,0.022,0.0004193875938653946,0.0009861482540145516,0.028578031808137894,-0.0001163138949777931,0.0022765316534787416,0.00915513001382351,-0.03129943087697029,0.7103269100189209,-0.06013140082359314,0.028578031808137894,0.009157674387097359,4.09716494687018e-06,0.00020557954849209636,4.127859115600586,90.0,0.0,7000.0,7000.0,7000.0,7000.0,0.303,0.315,0.327,32.766,2.848,2018.7723388671875,809.9401245117188,29.044498443603516,,False,
1783704534.6889515,2026-07-10T10:28:54,13244,20260710_102848,,,,,,arming,,,,,,,,,False,0.013935087248682976,0.0012127476511523128,1.002953052520752,-0.2863929867744446,-0.2212667167186737,-0.23506173491477966,-1.0,0.0,57.0,22.0,0.022,0.0004193875938653946,0.0009861482540145516,0.028578031808137894,-0.0001163138949777931,0.0022765316534787416,0.00915513001382351,-0.03129943087697029,0.7103269100189209,-0.06013140082359314,0.028578031808137894,0.009157674387097359,4.09716494687018e-06,0.00020557954849209636,4.127859115600586,90.0,0.0,7000.0,7000.0,7000.0,7000.0,0.303,0.315,0.327,32.766,2.848,2018.7723388671875,809.9401245117188,29.044498443603516,,False,
1783704534.699253,2026-07-10T10:28:54,13256,20260710_102848,,,,,,arming,,,,,,,,,False,0.0158824659883976,-0.000627988250926137,1.0001215934753418,-0.18956318497657776,0.10600756853818893,1.288783311843872,-1.0,0.0,75.0,22.0,0.022,0.0004386614018585533,0.0011677471920847893,0.025885749608278275,0.00042919174302369356,0.0029472934547811747,-0.004344027489423752,-0.052611108869314194,0.7141514420509338,-0.05636688694357872,0.028578031808137894,0.009157674387097359,4.09716494687018e-06,0.00020557954849209636,4.127859115600586,90.0,0.0,7000.0,7000.0,7000.0,7000.0,0.303,0.315,0.327,32.766,2.848,2018.7723388671875,809.9401245117188,29.044498443603516,,False,
1783704534.709495,2026-07-10T10:28:54,13264,20260710_102848,,,,,,arming,,,,,,,,,False,0.004655774682760239,-0.004480638541281223,0.999078094959259,-0.1513848453760147,-0.09126560389995575,-0.12238549441099167,3.0,0.0,69.0,22.0,0.022,0.0004386614018585533,0.0011677471920847893,0.025885749608278275,0.00042919174302369356,0.0029472934547811747,-0.004344027489423752,-0.052611108869314194,0.7141514420509338,-0.05636688694357872,0.028578031808137894,0.009157674387097359,4.09716494687018e-06,0.00020557954849209636,4.127859115600586,90.0,0.0,7000.0,7000.0,7000.0,7000.0,0.303,0.315,0.327,32.766,2.848,2018.7723388671875,809.9401245117188,29.044498443603516,,False,
1783704534.7196913,2026-07-10T10:28:54,13277,20260710_102848,,,,,,arming,,,,,,,,,False,0.015316726639866829,0.007955281063914299,1.0019043684005737,0.12325235456228256,0.3209991157054901,-0.6741881966590881,0.0,0.0,62.0,22.0,0.022,0.0004344254557508975,0.0005414193728938699,0.025805113837122917,0.00011751002602977678,-0.0009256246848963201,-0.004084044601768255,-0.02489154413342476,0.7136486768722534,-0.05855918303132057,0.0,0.0,1.0,0.00010099999781232327,4.127859115600586,90.0,0.0,7000.0,7000.0,7000.0,7000.0,0.303,0.315,0.327,32.766,2.848,2018.7723388671875,809.9401245117188,29.044498443603516,,False,
1783704534.7298553,2026-07-10T10:28:54,13284,20260710_102848,,,,,,arming,,,,,,,,,False,0.009933555498719215,-0.006604649126529694,1.0012354850769043,0.37454915046691895,0.21864844858646393,-0.5378719568252563,1.0,0.0,59.0,22.0,0.022,0.0004344254557508975,0.0005414193728938699,0.025805113837122917,0.00011751002602977678,-0.0009256246848963201,-0.004084044601768255,-0.02489154413342476,0.7136486768722534,-0.05855918303132057,0.0,0.0,1.0,0.00010099999781232327,4.138416290283203,90.0,0.0,7000.0,7000.0,7000.0,7000.0,32.766,32.766,0.333,32.766,2.84,2018.8489990234375,809.9331665039062,29.053707122802734,,False,
1783704534.7400167,2026-07-10T10:28:54,13296,20260710_102848,,,,,,arming,,,,,,,,,False,0.013091512955725193,0.005621728952974081,0.9993372559547424,-0.23973508179187775,-0.2821061313152313,0.2855775058269501,-4.0,-1.0,60.0,37.0,0.037,1.3511165889212862e-05,2.8116684916312806e-05,0.03700387850403786,0.0019867047667503357,0.0030744578689336777,-3.1816020054975525e-05,-0.022914892062544823,-0.0027849976904690266,-0.0012750726891681552,0.0,0.0,1.0,0.00010099999781232327,4.138416290283203,90.0,0.0,7000.0,7000.0,7000.0,7000.0,32.766,32.766,0.333,32.766,2.84,2018.8489990234375,809.9331665039062,29.053707122802734,,False,
1783704534.7502127,2026-07-10T10:28:54,13304,20260710_102848,,,,,,arming,,,,,,,,,False,0.012461505830287933,-0.009446987882256508,0.9974364638328552,-0.18642084300518036,-0.49795252084732056,1.0059391260147095,3.0,-3.0,82.0,37.0,0.037,1.3511165889212862e-05,2.8116684916312806e-05,0.03700387850403786,0.0019867047667503357,0.0030744578689336777,-3.1816020054975525e-05,-0.022914892062544823,-0.0027849976904690266,-0.0012750726891681552,0.0,0.0,1.0,0.00010099999781232327,4.138416290283203,90.0,0.0,7000.0,7000.0,7000.0,7000.0,32.766,32.766,0.333,32.766,2.84,2018.8489990234375,809.9331665039062,29.053707122802734,,False,
1783704534.760371,2026-07-10T10:28:54,13316,20260710_102848,,,,,,arming,,,,,,,,,False,0.009467962197959423,0.005615117494016886,0.9986993670463562,-0.15461696684360504,0.007925809361040592,-0.4470430016517639,-2.0,3.0,69.0,37.0,0.037,6.511259562103078e-05,5.3085022955201566e-05,0.03702276945114136,0.003824034472927451,0.0014890552265569568,-0.00020567458705045283,-0.02269592322409153,0.026704175397753716,-0.001027051592245698,0.0,0.0,1.0,0.00010099999781232327,4.138416290283203,90.0,0.0,7000.0,7000.0,7000.0,7000.0,32.766,32.766,0.333,32.766,2.84,2018.8489990234375,809.9331665039062,29.053707122802734,,False,
1783704534.7705474,2026-07-10T10:28:54,13329,20260710_102848,,,,,,arming,,,,,,,,,False,0.013464813120663166,-0.008852929808199406,1.0010371208190918,-0.23306222259998322,0.06603734195232391,0.1341780722141266,1.0,-3.0,67.0,37.0,0.037,6.511259562103078e-05,5.3085022955201566e-05,0.03702276945114136,0.003824034472927451,0.0014890552265569568,-0.00020567458705045283,-0.02269592322409153,0.026704175397753716,-0.001027051592245698,0.037010129541158676,-0.0003346659941598773,6.461941211455269e-06,0.0001509997819084674,4.138416290283203,90.0,0.0,7000.0,7000.0,7000.0,7000.0,32.766,32.766,0.333,0.281,2.84,2018.8489990234375,809.9331665039062,29.053707122802734,,False,
1783704534.7808073,2026-07-10T10:28:54,13336,20260710_102848,,,,,,arming,,,,,,,,,False,0.013915208168327808,0.005372315179556608,1.0032081604003906,0.112794429063797,-0.659580409526825,-0.3602735996246338,1.0,0.0,64.0,19.0,0.019,0.0003035918634850532,2.828769720508717e-05,0.037010129541158676,0.009473666548728943,-8.100039849523455e-05,-0.000340313243214041,0.031064823269844055,-0.015838205814361572,0.00015196202730294317,0.037010129541158676,-0.0003346659941598773,6.461941211455269e-06,0.0001509997819084674,4.138416290283203,90.0,0.0,7000.0,7000.0,7000.0,7000.0,32.766,32.766,0.333,0.281,2.84,2018.8489990234375,809.9331665039062,29.053707122802734,,False,
1783704534.791025,2026-07-10T10:28:54,13344,20260710_102848,,,,,,arming,,,,,,,,,False,0.017422668635845184,-0.0023861529771238565,0.9983928203582764,-0.41845235228538513,-0.04601756110787392,-0.26520708203315735,0.0,0.0,64.0,19.0,0.019,0.0003035918634850532,2.828769720508717e-05,0.037010129541158676,0.009473666548728943,-8.100039849523455e-05,-0.000340313243214041,0.031064823269844055,-0.015838205814361572,0.00015196202730294317,0.037010129541158676,-0.0003346659941598773,6.461941211455269e-06,0.0001509997819084674,4.138416290283203,90.0,0.0,7000.0,7000.0,7000.0,7000.0,32.766,32.766,0.333,0.281,2.84,2018.8489990234375,809.9331665039062,29.053707122802734,,False,
1783704534.8012037,2026-07-10T10:28:54,13356,20260710_102848,,,,,,arming,,,,,,,,,False,0.011461625806987286,0.001093215774744749,1.0006320476531982,0.2520117461681366,-0.2273925095796585,-0.4342772364616394,0.0,2.0,78.0,19.0,0.019,0.00029580347472801805,-4.020487904199399e-05,0.0277177132666111,0.00824322085827589,-0.001127424999140203,-0.0077908155508339405,0.02829856239259243,0.08294963836669922,-0.0017320227343589067,0.037010129541158676,-0.0003346659941598773,6.461941211455269e-06,0.0001509997819084674,4.138416290283203,90.0,0.0,7000.0,7000.0,7000.0,7000.0,32.766,32.766,0.333,0.281,2.84,2018.8489990234375,809.9331665039062,29.053707122802734,,False,
1783704534.811477,2026-07-10T10:28:54,13370,20260710_102848,,,,,,arming,,,,,,,,,False,0.006812651176005602,0.00010610742901917547,0.9977137446403503,0.4362020194530487,-0.36460480093955994,-0.34345942735671997,-2.0,1.0,63.0,19.0,0.019,0.00029580347472801805,-4.020487904199399e-05,0.0277177132666111,0.00824322085827589,-0.001127424999140203,-0.0077908155508339405,0.02829856239259243,0.08294963836669922,-0.0017320227343589067,0.037010129541158676,-0.0003346659941598773,6.461941211455269e-06,0.0001509997819084674,4.138416290283203,90.0,0.0,7000.0,7000.0,7000.0,7000.0,32.766,32.766,0.333,0.281,2.84,2018.8489990234375,809.9331665039062,29.053707122802734,,False,
1783704534.821667,2026-07-10T10:28:54,13379,20260710_102848,,,,,,arming,,,,,,,,,False,0.006812651176005602,0.00010610742901917547,0.9977137446403503,0.4362020194530487,-0.36460480093955994,-0.34345942735671997,1.0,5.0,77.0,19.0,0.019,-0.0001531699817860499,3.437831765040755e-05,0.02758408896625042,0.0004753732355311513,7.709213969064876e-05,-0.007735952734947205,-0.004886400420218706,0.3781668543815613,-0.003106368239969015,0.02750581130385399,-0.007923304103314877,3.860428478219546e-06,0.00019877382146660239,4.138416290283203,90.0,0.0,7000.0,7000.0,7000.0,7000.0,0.296,0.315,0.327,0.281,2.845,2018.8489990234375,809.9331665039062,29.053707122802734,,False,
1783704534.8318553,2026-07-10T10:28:54,13390,20260710_102848,,,,,,arming,,,,,,,,,False,0.004282825160771608,-0.004601678345352411,0.999127984046936,0.21157637238502502,-0.29264816641807556,-0.3009810447692871,2.0,-3.0,54.0,19.0,0.019,-0.0001531699817860499,3.437831765040755e-05,0.02758408896625042,0.0004753732355311513,7.709213969064876e-05,-0.007735952734947205,-0.004886400420218706,0.3781668543815613,-0.003106368239969015,0.02750581130385399,-0.007923304103314877,3.860428478219546e-06,0.00019877382146660239,4.138416290283203,90.0,0.0,7000.0,7000.0,7000.0,7000.0,0.296,0.315,0.327,0.281,2.845,2018.739501953125,809.94287109375,29.065019607543945,,False,
1783704534.8420398,2026-07-10T10:28:54,13400,20260710_102848,,,,,,arming,,,,,,,,,False,0.020546067506074905,-0.004930776543915272,0.9970008134841919,-0.5471807718276978,0.6258502006530762,0.39800193905830383,-3.0,-2.0,55.0,31.0,0.031,0.00040640737279318273,0.00014891529281158,0.02884504944086075,0.00940794125199318,0.001673495746217668,-0.003484329441562295,-0.06551218777894974,0.15863505005836487,-0.0032426558900624514,0.02750581130385399,-0.007923304103314877,3.860428478219546e-06,0.00019877382146660239,4.138416290283203,90.0,0.0,7000.0,7000.0,7000.0,7000.0,0.296,0.315,0.327,0.281,2.845,2018.739501953125,809.94287109375,29.065019607543945,,False,
1783704534.8522177,2026-07-10T10:28:54,13410,20260710_102848,,,,,,arming,,,,,,,,,False,0.0036928539630025625,-0.0012176785385236144,0.9969733953475952,0.30058324337005615,-0.1559787541627884,-0.02688838541507721,1.0,0.0,78.0,31.0,0.031,0.00040640737279318273,0.00014891529281158,0.02884504944086075,0.00940794125199318,0.001673495746217668,-0.003484329441562295,-0.06551218777894974,0.15863505005836487,-0.0032426558900624514,0.02750581130385399,-0.007923304103314877,3.860428478219546e-06,0.00019877382146660239,4.138416290283203,90.0,0.0,7000.0,7000.0,7000.0,7000.0,0.296,0.315,0.327,0.281,2.845,2018.739501953125,809.94287109375,29.065019607543945,,False,
1783704534.8623602,2026-07-10T10:28:54,13420,20260710_102848,,,,,,arming,,,,,,,,,False,0.020921647548675537,-0.0008573888917453587,0.9971804022789001,-0.4501735270023346,0.831403911113739,0.3322179615497589,1.0,0.0,78.0,31.0,0.031,0.0004730806977022439,-9.559753380017355e-05,0.028775399550795555,0.009381984360516071,-0.0025519856717437506,-0.003824049374088645,0.03476477786898613,0.20843414962291718,-0.003205228364095092,0.02750581130385399,-0.007923304103314877,3.860428478219546e-06,0.00019877382146660239,4.138416290283203,90.0,0.0,7000.0,7000.0,7000.0,7000.0,0.296,0.315,0.327,0.281,2.845,2018.739501953125,809.94287109375,29.065019607543945,,False,
1783704534.8724847,2026-07-10T10:28:54,13430,20260710_102848,,,,,,arming,,,,,,,,,False,0.005059251096099615,-0.0007272432558238506,1.001096248626709,0.1856221854686737,-0.3180961012840271,-0.28898918628692627,-2.0,0.0,69.0,31.0,0.031,0.0004730806977022439,-9.559753380017355e-05,0.028775399550795555,0.009381984360516071,-0.0025519856717437506,-0.003824049374088645,0.03476477786898613,0.20843414962291718,-0.003205228364095092,0.02869751676917076,-0.004332295618951321,3.4620420592545997e-06,0.00023128841712605208,4.138416290283203,90.0,0.0,7000.0,7000.0,7000.0,7000.0,0.296,0.315,0.327,0.28700000000000003,2.845,2018.739501953125,809.94287109375,29.065019607543945,,False,
1783704534.8826048,2026-07-10T10:28:54,13440,20260710_102848,,,,,,arming,,,,,,,,,False,0.020217694342136383,-0.002693360671401024,1.001121163368225,-0.08277443051338196,0.5900499224662781,-0.01891550049185753,3.0,-3.0,64.0,18.0,0.018,0.000597242615185678,0.00018889526836574078,0.02869751676917076,0.010126267559826374,0.0011142251314595342,-0.004293247126042843,0.07885971665382385,0.10626205801963806,-0.0030848428141325712,0.02869751676917076,-0.004332295618951321,3.4620420592545997e-06,0.00023128841712605208,4.138416290283203,90.0,0.0,7000.0,7000.0,7000.0,7000.0,0.296,0.315,0.327,0.28700000000000003,2.845,2018.739501953125,809.94287109375,29.065019607543945,,False,
1783704534.8927321,2026-07-10T10:28:54,13450,20260710_102848,,,,,,arming,,,,,,,,,False,0.00553049286827445,-0.001395318191498518,1.0004856586456299,0.22528007626533508,-0.41964757442474365,-0.04308747127652168,0.0,0.0,66.0,18.0,0.018,0.000597242615185678,0.00018889526836574078,0.02869751676917076,0.010126267559826374,0.0011142251314595342,-0.004293247126042843,0.07885971665382385,0.10626205801963806,-0.0030848428141325712,0.02869751676917076,-0.004332295618951321,3.4620420592545997e-06,0.00023128841712605208,4.138416290283203,90.0,0.0,7000.0,7000.0,7000.0,7000.0,0.296,0.315,0.327,0.28700000000000003,2.845,2018.739501953125,809.94287109375,29.065019607543945,,False,
1783704534.9028559,2026-07-10T10:28:54,13460,20260710_102848,,,,,,arming,,,,,,,,,False,0.021318767219781876,-0.0027522474993020296,1.0014162063598633,-0.7753189206123352,0.28559428453445435,0.5453627109527588,0.0,3.0,85.0,18.0,0.018,0.0005895200883969665,-0.0003181484353262931,0.02444782294332981,0.008966357447206974,-0.004605562426149845,-0.022496547549962997,0.06831730157136917,0.31625133752822876,-0.004227048251777887,0.02869751676917076,-0.004332295618951321,3.4620420592545997e-06,0.00023128841712605208,4.138416290283203,90.0,0.0,7000.0,7000.0,7000.0,7000.0,0.296,0.315,0.327,0.28700000000000003,2.845,2018.739501953125,809.94287109375,29.065019607543945,,False,
1783704534.9129767,2026-07-10T10:28:54,13470,20260710_102848,,,,,,arming,,,,,,,,,False,0.004345370456576347,-9.834398224484175e-05,0.9985989928245544,0.35090890526771545,-0.9094148278236389,-0.3465089499950409,0.0,1.0,65.0,18.0,0.018,0.0005895200883969665,-0.0003181484353262931,0.02444782294332981,0.008966357447206974,-0.004605562426149845,-0.022496547549962997,0.06831730157136917,0.31625133752822876,-0.004227048251777887,0.02869751676917076,-0.004332295618951321,3.4620420592545997e-06,0.00023128841712605208,4.138416290283203,90.0,0.0,7000.0,7000.0,7000.0,7000.0,0.296,0.315,0.327,0.28700000000000003,2.845,2018.739501953125,809.94287109375,29.065019607543945,,False,
1783704534.9230967,2026-07-10T10:28:54,13481,20260710_102848,,,,,,arming,,,,,,,,,False,0.020493725314736366,0.0004436727613210678,0.9991254806518555,-0.22611406445503235,0.15213395655155182,0.3020557165145874,-1.0,0.0,73.0,18.0,0.018,0.00041363423224538565,-0.0001323501783190295,0.024004220962524414,0.006640943698585033,-0.002113878261297941,-0.022334730252623558,-0.013583200983703136,0.4174264073371887,-0.003959637135267258,0.02378036081790924,-0.02248486876487732,3.855850536638172e-06,0.00025273344363085926,4.143694877624512,90.0,0.0,7000.0,7000.0,7000.0,7000.0,0.303,0.311,0.332,0.28700000000000003,2.835,2018.8160400390625,809.9359741210938,29.071903228759766,,False,
1783704534.9332373,2026-07-10T10:28:54,13490,20260710_102848,,,,,,arming,,,,,,,,,False,0.006348771974444389,0.003816980170086026,0.9973959922790527,0.3800160586833954,-0.4749681055545807,-0.1672557294368744,-2.0,-1.0,53.0,18.0,0.018,0.00041363423224538565,-0.0001323501783190295,0.024004220962524414,0.006640943698585033,-0.002113878261297941,-0.022334730252623558,-0.013583200983703136,0.4174264073371887,-0.003959637135267258,0.02378036081790924,-0.02248486876487732,3.855850536638172e-06,0.00025273344363085926,4.143694877624512,90.0,0.0,7000.0,7000.0,7000.0,7000.0,0.303,0.311,0.332,0.28700000000000003,2.835,2018.8160400390625,809.9359741210938,29.071903228759766,,False,
1783704534.943369,2026-07-10T10:28:54,13500,20260710_102848,,,,,,arming,,,,,,,,,False,0.023472968488931656,0.0005726037197746336,0.9988503456115723,-0.3473723530769348,0.46511876583099365,0.5064955353736877,2.0,1.0,56.0,31.0,0.031,0.00042677551391534507,-0.00014274210843723267,0.02660226821899414,0.006237027235329151,-0.0018758340738713741,-0.005081881769001484,-0.018124070018529892,0.4521103799343109,-0.005320701282471418,0.02378036081790924,-0.02248486876487732,3.855850536638172e-06,0.00025273344363085926,4.143694877624512,90.0,0.0,7000.0,7000.0,7000.0,7000.0,0.303,0.311,0.332,0.28700000000000003,2.835,2018.8160400390625,809.9359741210938,29.071903228759766,,False,
1783704534.9535112,2026-07-10T10:28:54,13510,20260710_102848,,,,,,arming,,,,,,,,,False,0.007261952385306358,0.001875618938356638,0.9981371164321899,0.3762721121311188,-0.24449744820594788,-0.17605090141296387,0.0,-3.0,83.0,31.0,0.031,0.00042677551391534507,-0.00014274210843723267,0.02660226821899414,0.006237027235329151,-0.0018758340738713741,-0.005081881769001484,-0.018124070018529892,0.4521103799343109,-0.005320701282471418,0.02378036081790924,-0.02248486876487732,3.855850536638172e-06,0.00025273344363085926,4.143694877624512,90.0,0.0,7000.0,7000.0,7000.0,7000.0,0.303,0.311,0.332,0.28700000000000003,2.835,2018.8160400390625,809.9359741210938,29.071903228759766,,False,
1783704534.9636343,2026-07-10T10:28:54,13520,20260710_102848,,,,,,arming,,,,,,,,,False,0.017977697774767876,-0.004223652649670839,1.003340482711792,-0.47314706444740295,0.598784327507019,0.5742682218551636,0.0,1.0,81.0,31.0,0.031,0.0008267543162219226,-0.00014500433462671936,0.026499759405851364,0.010002922266721725,-0.0010574815096333623,-0.005405117757618427,-0.025032952427864075,0.3924158215522766,-0.0066565279848873615,0.02378036081790924,-0.02248486876487732,3.855850536638172e-06,0.00025273344363085926,4.143694877624512,90.0,0.0,7000.0,7000.0,7000.0,7000.0,0.303,0.311,0.332,0.28700000000000003,2.835,2018.8160400390625,809.9359741210938,29.071903228759766,,False,
1783704534.9737551,2026-07-10T10:28:54,13530,20260710_102848,,,,,,arming,,,,,,,,,False,0.005542490631341934,-0.002862263936549425,1.0021390914916992,0.36048758029937744,-0.760693371295929,0.355370432138443,-2.0,0.0,63.0,31.0,0.031,0.0008267543162219226,-0.00014500433462671936,0.026499759405851364,0.010002922266721725,-0.0010574815096333623,-0.005405117757618427,-0.025032952427864075,0.3924158215522766,-0.0066565279848873615,0.026392418891191483,-0.00531282601878047,4.084128704562318e-06,0.0002445813734084368,4.138416290283203,90.0,0.0,7000.0,7000.0,7000.0,7000.0,0.303,0.311,0.332,0.274,2.835,2018.8160400390625,809.9359741210938,29.071903228759766,,False,
1783704534.983874,2026-07-10T10:28:54,13540,20260710_102848,,,,,,arming,,,,,,,,,False,0.021545609459280968,-0.00468065869063139,0.9997414350509644,-0.4854416251182556,0.7409989237785339,0.3035849332809448,1.0,-2.0,59.0,18.0,0.018,0.0009302691905759275,0.0003060192975681275,0.026392418891191483,0.01015882845968008,0.003122402587905526,-0.005246997810900211,-0.0692615658044815,0.35032033920288086,-0.00405140733346343,0.026392418891191483,-0.00531282601878047,4.084128704562318e-06,0.0002445813734084368,4.138416290283203,90.0,0.0,7000.0,7000.0,7000.0,7000.0,0.303,0.311,0.332,0.274,2.835,2018.8160400390625,809.9359741210938,29.071903228759766,,False,
1783704534.9939916,2026-07-10T10:28:54,13550,20260710_102848,,,,,,arming,,,,,,,,,False,0.012924045324325562,0.0032005785033106804,0.9993972182273865,-0.07454605400562286,-0.8172052502632141,-0.03340785950422287,2.0,4.0,71.0,18.0,0.018,0.0009302691905759275,0.0003060192975681275,0.026392418891191483,0.01015882845968008,0.003122402587905526,-0.005246997810900211,-0.0692615658044815,0.35032033920288086,-0.00405140733346343,0.026392418891191483,-0.00531282601878047,4.084128704562318e-06,0.0002445813734084368,4.138416290283203,90.0,0.0,7000.0,7000.0,7000.0,7000.0,0.303,0.311,0.332,0.274,2.835,2018.8160400390625,809.9359741210938,29.071903228759766,,False,
1783704535.0041177,2026-07-10T10:28:55,13560,20260710_102848,,,,,,arming,,,,,,,,,False,0.01676829904317856,-0.004288546275347471,0.9988423585891724,-0.33881378173828125,0.6531184315681458,0.12137623876333237,-1.0,0.0,84.0,18.0,0.018,0.0003660022630356252,-0.00012841526768170297,0.02260439470410347,0.004676228389143944,-0.001334379194304347,-0.024227431043982506,-0.038543347269296646,0.5563047528266907,-0.0043860143050551414,0.026392418891191483,-0.00531282601878047,4.084128704562318e-06,0.0002445813734084368,4.138416290283203,90.0,0.0,7000.0,7000.0,7000.0,7000.0,0.303,0.311,0.332,0.274,2.835,2018.8160400390625,809.9359741210938,29.071903228759766,,False,
1783704535.0143163,2026-07-10T10:28:55,13570,20260710_102848,,,,,,arming,,,,,,,,,False,0.014142586849629879,0.005220967344939709,0.9997480511665344,0.15121015906333923,-0.8472540974617004,-0.341299444437027,0.0,0.0,69.0,18.0,0.018,0.0003660022630356252,-0.00012841526768170297,0.02260439470410347,0.004676228389143944,-0.001334379194304347,-0.024227431043982506,-0.038543347269296646,0.5563047528266907,-0.0043860143050551414,0.026392418891191483,-0.00531282601878047,4.084128704562318e-06,0.0002445813734084368,4.138416290283203,90.0,0.0,7000.0,7000.0,7000.0,7000.0,0.303,0.311,0.332,0.274,2.835,2018.8160400390625,809.9359741210938,29.071903228759766,,False,
1783704535.0244958,2026-07-10T10:28:55,13581,20260710_102848,,,,,,arming,,,,,,,,,False,0.010883686132729053,-0.001605772995389998,0.9969956874847412,-0.2848816514015198,0.18416626751422882,0.37151360511779785,-2.0,0.0,80.0,18.0,0.018,0.00039926680619828403,0.0003474497061688453,0.02211914025247097,0.005147045478224754,0.002945455489680171,-0.024381259456276894,-0.1268341988325119,0.5698562860488892,-0.0055701471865177155,0.0218750461935997,-0.0244828499853611,4.430362878338201e-06,0.00024012189533095807,4.143694877624512,90.0,0.0,7000.0,7000.0,7000.0,7000.0,0.299,0.313,0.334,0.274,2.846,2018.7613525390625,809.940673828125,29.080965042114258,,False,
1783704535.034654,2026-07-10T10:28:55,13590,20260710_102848,,,,,,arming,,,,,,,,,False,0.016403144225478172,0.007844598032534122,1.0010076761245728,0.20790477097034454,-0.23819974064826965,-0.08501353114843369,0.0,0.0,54.0,18.0,0.018,0.00039926680619828403,0.0003474497061688453,0.02211914025247097,0.005147045478224754,0.002945455489680171,-0.024381259456276894,-0.1268341988325119,0.5698562860488892,-0.0055701471865177155,0.0218750461935997,-0.0244828499853611,4.430362878338201e-06,0.00024012189533095807,4.143694877624512,90.0,0.0,7000.0,7000.0,7000.0,7000.0,0.299,0.313,0.334,0.274,2.846,2018.7613525390625,809.940673828125,29.080965042114258,,False,
1783704535.0448022,2026-07-10T10:28:55,13600,20260710_102848,,,,,,arming,,,,,,,,,False,0.0066437749192118645,-0.003047236241400242,1.0012487173080444,0.2758294343948364,0.5206421613693237,0.32981401681900024,3.0,0.0,58.0,36.0,0.036,0.000449309591203928,-0.0004209657199680805,0.02798670530319214,0.005156027618795633,-0.0032648881897330284,0.010912420228123665,0.0038334529381245375,0.5827137231826782,-0.006524294149130583,0.0218750461935997,-0.0244828499853611,4.430362878338201e-06,0.00024012189533095807,4.143694877624512,90.0,0.0,7000.0,7000.0,7000.0,7000.0,0.299,0.313,0.334,0.274,2.846,2018.7613525390625,809.940673828125,29.080965042114258,,False,
1783704535.0549486,2026-07-10T10:28:55,13610,20260710_102848,,,,,,arming,,,,,,,,,False,0.021678557619452477,0.006631879135966301,1.0020471811294556,-0.40341365337371826,-0.043527137488126755,-0.4667793810367584,0.0,-4.0,66.0,36.0,0.036,0.000449309591203928,-0.0004209657199680805,0.02798670530319214,0.005156027618795633,-0.0032648881897330284,0.010912420228123665,0.0038334529381245375,0.5827137231826782,-0.006524294149130583,0.0218750461935997,-0.0244828499853611,4.430362878338201e-06,0.00024012189533095807,4.143694877624512,90.0,0.0,7000.0,7000.0,7000.0,7000.0,0.299,0.313,0.334,0.274,2.846,2018.7613525390625,809.940673828125,29.080965042114258,,False,
1783704535.0651004,2026-07-10T10:28:55,13620,20260710_102848,,,,,,arming,,,,,,,,,False,0.007798606529831886,-0.009486597031354904,0.9989560842514038,0.5714092254638672,-0.032892774790525436,-0.1476474404335022,-1.0,0.0,79.0,36.0,0.036,0.0014436962082982063,-0.00014527569874189794,0.02821151167154312,0.012285685166716576,-0.0002476434165146202,0.011344016529619694,-0.045374155044555664,0.4586295783519745,-0.007078495807945728,0.0218750461935997,-0.0244828499853611,4.430362878338201e-06,0.00024012189533095807,4.143694877624512,90.0,0.0,7000.0,7000.0,7000.0,7000.0,0.299,0.313,0.334,0.274,2.846,2018.7613525390625,809.940673828125,29.080965042114258,,False,
1783704535.075263,2026-07-10T10:28:55,13630,20260710_102848,,,,,,arming,,,,,,,,,False,0.024778690189123154,0.006556298118084669,0.999128520488739,-0.4186551570892334,-0.40940627455711365,-0.0802348405122757,1.0,4.0,63.0,36.0,0.036,0.0014436962082982063,-0.00014527569874189794,0.02821151167154312,0.012285685166716576,-0.0002476434165146202,0.011344016529619694,-0.045374155044555664,0.4586295783519745,-0.007078495807945728,0.02845815196633339,0.01154678501188755,4.318842002248857e-06,0.00022177967184688896,4.138416290283203,90.0,0.0,7000.0,7000.0,7000.0,7000.0,0.299,0.313,0.334,32.766,2.846,2018.7613525390625,809.940673828125,29.080965042114258,,False,
1783704535.0854294,2026-07-10T10:28:55,13640,20260710_102848,,,,,,arming,,,,,,,,,False,0.00678988266736269,-0.008988464251160622,0.9989453554153442,0.25027546286582947,-0.156533882021904,0.10710769146680832,0.0,-3.0,50.0,18.0,0.018,0.00039402046240866184,-0.0004423083446454257,0.02845815196633339,0.0038642275612801313,-0.0026780457701534033,0.011589977890253067,-0.015306609682738781,0.5367531776428223,-0.009371884167194366,0.02845815196633339,0.01154678501188755,4.318842002248857e-06,0.00022177967184688896,4.138416290283203,90.0,0.0,7000.0,7000.0,7000.0,7000.0,0.299,0.313,0.334,32.766,2.846,2018.7613525390625,809.940673828125,29.080965042114258,,False,
1783704535.095612,2026-07-10T10:28:55,13654,20260710_102848,,,,,,arming,,,,,,,,,False,0.024273982271552086,0.013345793820917606,1.002701997756958,-0.8247482180595398,0.2652735710144043,-0.05763426795601845,0.0,2.0,78.0,18.0,0.018,0.00039402046240866184,-0.0004423083446454257,0.02845815196633339,0.0038642275612801313,-0.0026780457701534033,0.011589977890253067,-0.015306609682738781,0.5367531776428223,-0.009371884167194366,0.02845815196633339,0.01154678501188755,4.318842002248857e-06,0.00022177967184688896,4.138416290283203,90.0,0.0,7000.0,7000.0,7000.0,7000.0,0.299,0.313,0.334,32.766,2.846,2018.7613525390625,809.940673828125,29.080965042114258,,False,
1783704535.1057868,2026-07-10T10:28:55,13664,20260710_102848,,,,,,arming,,,,,,,,,False,0.0019551385194063187,-0.008865026757121086,1.0018337965011597,0.7564581632614136,-0.5655351877212524,-0.14099003374576569,0.0,0.0,73.0,18.0,0.018,0.0008023824193514884,-0.0003641674993559718,0.023957785218954086,0.006802007555961609,-0.002012620447203517,-0.011898064985871315,-0.02896704711019993,0.599822998046875,-0.009515371173620224,0.02845815196633339,0.01154678501188755,4.318842002248857e-06,0.00022177967184688896,4.138416290283203,90.0,0.0,7000.0,7000.0,7000.0,7000.0,0.299,0.313,0.334,32.766,2.846,2018.7613525390625,809.940673828125,29.080965042114258,,False,
1783704535.1159723,2026-07-10T10:28:55,13674,20260710_102848,,,,,,arming,,,,,,,,,False,0.022542109712958336,0.007207415997982025,1.0024614334106445,-0.8014278411865234,0.7963319420814514,-0.00817464105784893,-2.0,6.0,83.0,18.0,0.018,0.0008023824193514884,-0.0003641674993559718,0.023957785218954086,0.006802007555961609,-0.002012620447203517,-0.011898064985871315,-0.02896704711019993,0.599822998046875,-0.009515371173620224,0.02845815196633339,0.01154678501188755,4.318842002248857e-06,0.00022177967184688896,4.138416290283203,90.0,0.0,7000.0,7000.0,7000.0,7000.0,0.299,0.313,0.334,32.766,2.846,2018.7613525390625,809.940673828125,29.080965042114258,,False,
1783704535.1261451,2026-07-10T10:28:55,13684,20260710_102848,,,,,,arming,,,,,,,,,False,0.0006695974734611809,-0.007304293103516102,1.0015952587127686,0.4532254934310913,-1.1489653587341309,-0.4314613938331604,2.0,-7.0,52.0,18.0,0.018,-0.0007713926024734974,0.00018736280617304146,0.023727672174572945,-0.005034292116761208,0.00254921056330204,-0.0114941680803895,-0.09772257506847382,0.7972906231880188,-0.006976923905313015,0.023613648489117622,-0.011239110492169857,4.422120127856033e-06,0.00021912959346082062,4.143694877624512,90.0,0.0,7000.0,7000.0,7000.0,7000.0,0.298,0.315,0.333,32.766,2.838,2018.7559814453125,809.9415283203125,29.08186149597168,,False,
1783704535.1363385,2026-07-10T10:28:55,13695,20260710_102848,,,,,,arming,,,,,,,,,False,0.023648928850889206,0.005524663720279932,0.9971223473548889,-0.728898823261261,0.8751756548881531,-0.042040735483169556,-4.0,3.0,59.0,32.0,0.032,0.0003044215845875442,0.0007079423521645367,0.027271218597888947,0.0020897064823657274,0.006113411858677864,0.008702206425368786,-0.09772257506847382,0.7972906231880188,-0.006976923905313015,0.023613648489117622,-0.011239110492169857,4.422120127856033e-06,0.00021912959346082062,4.143694877624512,90.0,0.0,7000.0,7000.0,7000.0,7000.0,0.298,0.315,0.333,32.766,2.838,2018.7559814453125,809.9415283203125,29.08186149597168,,False,
1783704535.146497,2026-07-10T10:28:55,13704,20260710_102848,,,,,,arming,,,,,,,,,False,0.005468542687594891,-0.004778539761900902,0.9974625706672668,0.9346590042114258,-0.6487318873405457,-0.7176000475883484,3.0,-1.0,66.0,32.0,0.032,0.0003044215845875442,0.0007079423521645367,0.027271218597888947,0.0020897064823657274,0.006113411858677864,0.008702206425368786,-0.15039916336536407,0.6816525459289551,-0.005445405375212431,0.023613648489117622,-0.011239110492169857,4.422120127856033e-06,0.00021912959346082062,4.143694877624512,90.0,0.0,7000.0,7000.0,7000.0,7000.0,0.298,0.315,0.333,32.766,2.838,2018.7559814453125,809.9415283203125,29.08186149597168,,False,
1783704535.1566594,2026-07-10T10:28:55,13715,20260710_102848,,,,,,arming,,,,,,,,,False,0.022860178723931313,-0.0021920716390013695,0.9973632097244263,-0.6971709132194519,1.1317638158798218,0.24414685368537903,1.0,1.0,74.0,32.0,0.032,0.0002870664466172457,-0.00038150305044837296,0.027449408546090126,0.002075874712318182,-0.001482111169025302,0.008172508329153061,-0.15039916336536407,0.6816525459289551,-0.005445405375212431,0.023613648489117622,-0.011239110492169857,4.422120127856033e-06,0.00021912959346082062,4.143694877624512,90.0,0.0,7000.0,7000.0,7000.0,7000.0,0.298,0.315,0.333,32.766,2.838,2018.7559814453125,809.9415283203125,29.08186149597168,,False,
1783704535.1668158,2026-07-10T10:28:55,13724,20260710_102848,,,,,,arming,,,,,,,,,False,0.006927132606506348,-0.001015010755509138,1.001003623008728,0.7789848446846008,-0.9040284752845764,-0.7737724781036377,-3.0,0.0,69.0,32.0,0.032,0.0002870664466172457,-0.00038150305044837296,0.027449408546090126,0.002075874712318182,-0.001482111169025302,0.008172508329153061,-0.02961161360144615,0.6862627267837524,-0.008508711121976376,0.023613648489117622,-0.011239110492169857,4.422120127856033e-06,0.00021912959346082062,4.143694877624512,90.0,0.0,7000.0,7000.0,7000.0,7000.0,0.298,0.315,0.333,32.766,2.838,2018.7559814453125,809.9415283203125,29.08186149597168,,False,
1783704535.1769416,2026-07-10T10:28:55,13734,20260710_102848,,,,,,arming,,,,,,,,,False,0.01767505146563053,-0.0035548952873796225,0.999707043170929,-0.6179077625274658,1.2521647214889526,0.34290409088134766,3.0,-3.0,54.0,19.0,0.019,0.0002870664466172457,-0.00038150305044837296,0.027449408546090126,0.002075874712318182,-0.001482111169025302,0.008172508329153061,-0.02961161360144615,0.6862627267837524,-0.008508711121976376,0.02761160209774971,0.007934187538921833,4.2153951653745025e-06,0.00020852145098615438,4.138416290283203,90.0,0.0,7000.0,7000.0,7000.0,7000.0,0.298,0.315,0.333,0.291,2.838,2018.7559814453125,809.9415283203125,29.08186149597168,,False,
1783704535.1870632,2026-07-10T10:28:55,13744,20260710_102848,,,,,,arming,,,,,,,,,False,0.006731864530593157,0.005260258913040161,1.0017145872116089,0.2878219783306122,-1.0269855260849,-0.3464386761188507,-1.0,1.0,63.0,19.0,0.019,0.00029156700475141406,0.0004436419694684446,0.02761160209774971,0.002395452931523323,0.00374241778627038,0.00795707106590271,-0.02712141163647175,0.6138387322425842,-0.009033583104610443,0.02761160209774971,0.007934187538921833,4.2153951653745025e-06,0.00020852145098615438,4.138416290283203,90.0,0.0,7000.0,7000.0,7000.0,7000.0,0.298,0.315,0.333,0.291,2.838,2018.7559814453125,809.9415283203125,29.08186149597168,,False,
1783704535.197182,2026-07-10T10:28:55,13755,20260710_102848,,,,,,arming,,,,,,,,,False,0.012399685569107533,-0.0053841727785766125,0.9990794658660889,-0.5689805746078491,0.7200229167938232,0.4341771900653839,1.0,0.0,76.0,19.0,0.019,0.000761589384637773,-0.0003768738533835858,0.02394920215010643,0.0048918998800218105,-0.001213973737321794,-0.01005330216139555,-0.02712141163647175,0.6138387322425842,-0.009033583104610443,0.02761160209774971,0.007934187538921833,4.2153951653745025e-06,0.00020852145098615438,4.138416290283203,90.0,0.0,7000.0,7000.0,7000.0,7000.0,0.298,0.315,0.333,0.291,2.838,2018.7559814453125,809.9415283203125,29.08186149597168,,False,
1783704535.2073166,2026-07-10T10:28:55,13764,20260710_102848,,,,,,arming,,,,,,,,,False,0.015496313571929932,0.005568660330027342,1.0015407800674438,0.5462443828582764,-0.9278228878974915,-0.29602545499801636,0.0,2.0,72.0,19.0,0.019,0.000761589384637773,-0.0003768738533835858,0.02394920215010643,0.0048918998800218105,-0.001213973737321794,-0.01005330216139555,-0.03383604437112808,0.653462290763855,-0.00964362919330597,0.02761160209774971,0.007934187538921833,4.2153951653745025e-06,0.00020852145098615438,4.138416290283203,90.0,0.0,7000.0,7000.0,7000.0,7000.0,0.298,0.315,0.333,0.291,2.838,2018.7559814453125,809.9415283203125,29.08186149597168,,False,
1783704535.2174404,2026-07-10T10:28:55,13776,20260710_102848,,,,,,arming,,,,,,,,,False,0.010054936632514,-0.011024360544979572,0.9969595074653625,-0.29025790095329285,0.6864853501319885,0.711838960647583,-1.0,0.0,78.0,19.0,0.019,0.00023293292906600982,-0.00012058377615176141,0.02374972030520439,0.0014092969940975308,0.0007922250078991055,-0.009919996373355389,-0.0579698272049427,0.7048044204711914,-0.008071009069681168,0.02761160209774971,0.007934187538921833,4.2153951653745025e-06,0.00020852145098615438,4.138416290283203,90.0,0.0,7000.0,7000.0,7000.0,7000.0,0.298,0.315,0.333,0.291,2.838,2018.7559814453125,809.9415283203125,29.08186149597168,,False,
1783704535.227559,2026-07-10T10:28:55,13784,20260710_102848,,,,,,arming,,,,,,,,,False,0.018782632425427437,0.009740748442709446,1.0008580684661865,0.03583585470914841,-0.7821522355079651,-0.3963037431240082,-2.0,0.0,57.0,19.0,0.019,0.00023293292906600982,-0.00012058377615176141,0.02374972030520439,0.0014092969940975308,0.0007922250078991055,-0.009919996373355389,-0.0579698272049427,0.7048044204711914,-0.008071009069681168,0.023649750277400017,-0.010090784169733524,4.296271072234958e-06,0.0002114925446221605,4.143694877624512,90.0,0.0,7000.0,7000.0,7000.0,7000.0,32.766,0.31,0.331,0.291,2.84,2018.8106689453125,809.9366455078125,29.079463958740234,,False,
1783704535.237706,2026-07-10T10:28:55,13796,20260710_102848,,,,,,arming,,,,,,,,,False,0.00861520878970623,-0.0155197037383914,0.9983576536178589,-0.16139689087867737,0.48332303762435913,0.3947390019893646,0.0,-1.0,55.0,35.0,0.035,0.0004616289515979588,0.00037755552330054343,0.0285031720995903,0.00300917262211442,0.0038980639073997736,0.01581544615328312,-0.09750844538211823,0.6854943037033081,-0.006502056494355202,0.023649750277400017,-0.010090784169733524,4.296271072234958e-06,0.0002114925446221605,4.143694877624512,90.0,0.0,7000.0,7000.0,7000.0,7000.0,32.766,0.31,0.331,0.291,2.84,2018.8106689453125,809.9366455078125,29.079463958740234,,False,
1783704535.2479384,2026-07-10T10:28:55,13804,20260710_102848,,,,,,arming,,,,,,,,,False,0.023565759882330894,0.013690012507140636,1.001654028892517,-0.19032783806324005,-0.2638348937034607,-0.6379737854003906,1.0,0.0,71.0,35.0,0.035,0.0004616289515979588,0.00037755552330054343,0.0285031720995903,0.00300917262211442,0.0038980639073997736,0.01581544615328312,-0.09750844538211823,0.6854943037033081,-0.006502056494355202,0.023649750277400017,-0.010090784169733524,4.296271072234958e-06,0.0002114925446221605,4.143694877624512,90.0,0.0,7000.0,7000.0,7000.0,7000.0,32.766,0.31,0.331,0.291,2.84,2018.8106689453125,809.9366455078125,29.079463958740234,,False,
1783704535.2580752,2026-07-10T10:28:55,13816,20260710_102848,,,,,,arming,,,,,,,,,False,0.006286269053816795,-0.011153665371239185,1.000359296798706,0.03253202512860298,-0.05612490326166153,0.2935527563095093,-1.0,0.0,78.0,35.0,0.035,0.0004266397445462644,0.0003686208510771394,0.02881973795592785,0.003240736434236169,0.0036937412805855274,0.015892036259174347,-0.09101923555135727,0.6959747076034546,-0.010025160387158394,0.023649750277400017,-0.010090784169733524,4.296271072234958e-06,0.0002114925446221605,4.143694877624512,90.0,0.0,7000.0,7000.0,7000.0,7000.0,32.766,0.31,0.331,0.291,2.84,2018.8106689453125,809.9366455078125,29.079463958740234,,False,
1783704535.2682054,2026-07-10T10:28:55,13824,20260710_102848,,,,,,arming,,,,,,,,,False,0.02481859363615513,0.013617401011288166,0.9978946447372437,-0.6019898056983948,-0.16875877976417542,-0.3204210698604584,0.0,1.0,74.0,35.0,0.035,0.0004266397445462644,0.0003686208510771394,0.02881973795592785,0.003240736434236169,0.0036937412805855274,0.015892036259174347,-0.09101923555135727,0.6959747076034546,-0.010025160387158394,0.023649750277400017,-0.010090784169733524,4.296271072234958e-06,0.0002114925446221605,4.143694877624512,90.0,0.0,7000.0,7000.0,7000.0,7000.0,32.766,0.31,0.331,0.291,2.84,2018.8106689453125,809.9366455078125,29.079463958740234,,False,
