pc_time_s,pc_time_iso,cf_time_ms,session_id,motif_id,motif_type,motif_phase,rep_index,motif_param_json,flight_phase,cmd_vx_m_s,cmd_vy_m_s,cmd_yaw_rate_deg_s,cmd_height_m,cmd_vx_raw_m_s,cmd_vy_raw_m_s,cmd_yaw_rate_raw_deg_s,cmd_height_raw_m,safety_override_active,acc_x_g,acc_y_g,acc_z_g,gyro_x_dps,gyro_y_dps,gyro_z_dps,flow_delta_x_px,flow_delta_y_px,flow_squal,zrange_mm,zrange_m,x_m,y_m,z_m,vx_m_s,vy_m_s,vz_m_s,roll_deg,pitch_deg,yaw_deg,kalman_state_z_m,kalman_state_pz,kalman_var_z,kalman_var_pz,battery_v,battery_level_pct,pm_state,motor_m1,motor_m2,motor_m3,motor_m4,range_front_m,range_back_m,range_left_m,range_right_m,range_up_m,baro_asl_m,baro_pressure_hpa,baro_temp_c,safety_flag,should_land,event
1783648001.3919327,2026-07-09T18:46:41,,20260709_184636,,,,,,ground_idle,,,,,,,,,False,,,,,,,,,,,,,,,,,,,,,,,,,,,,,,,,,,,,,,,,,False,
1783648001.4020736,2026-07-09T18:46:41,,20260709_184636,,,,,,ground_idle,,,,,,,,,False,,,,,,,,,,,,,,,,,,,,,,,,,,,,,,,,,,,,,,,,,False,
1783648001.4121892,2026-07-09T18:46:41,12432,20260709_184636,,,,,,ground_idle,,,,,,,,,False,0.009612921625375748,0.007738756015896797,1.0002167224884033,-0.09708142280578613,0.1607937216758728,0.07789413630962372,4.0,-4.0,37.0,27.0,0.027,,,,,,,,,,,,,,,,,,,,,,,,,,,,,,False,
1783648001.422298,2026-07-09T18:46:41,12444,20260709_184636,,,,,,ground_idle,,,,,,,,,False,0.010690638795495033,0.003818485653027892,1.0013179779052734,0.17532606422901154,-0.2859187722206116,-0.16815884411334991,4.0,3.0,32.0,29.0,0.029,0.0021819891408085823,-0.0003838724223896861,0.02846560999751091,0.0009736628271639347,-0.0017380621284246445,-0.002943939296528697,0.32510805130004883,0.5758587718009949,-0.06533656269311905,,,,,,,,,,,,,,,,,,,,,False,
1783648001.432418,2026-07-09T18:46:41,12452,20260709_184636,,,,,,ground_idle,,,,,,,,,False,0.010384696535766125,0.00473944004625082,1.0001189708709717,0.02775692380964756,-0.3162353038787842,0.06026260554790497,0.0,-3.0,30.0,29.0,0.029,0.0021819891408085823,-0.0003838724223896861,0.02846560999751091,0.0009736628271639347,-0.0017380621284246445,-0.002943939296528697,0.32510805130004883,0.5758587718009949,-0.06533656269311905,,,,,,,,,,,,,,,,,,,,,False,
1783648001.4425359,2026-07-09T18:46:41,12464,20260709_184636,,,,,,ground_idle,,,,,,,,,False,0.010115346871316433,0.0055871037766337395,0.9986796379089355,-0.006772978231310844,0.07768300175666809,0.15650874376296997,0.0,3.0,42.0,29.0,0.029,0.0021860760170966387,-0.00038792871055193245,0.02841285616159439,0.0008056330261752009,-0.0018159288447350264,-0.002795842941850424,0.29795601963996887,0.5885826945304871,-0.06604716181755066,,,,,,,,,,,,,,,,,,,,,False,
1783648001.4526536,2026-07-09T18:46:41,12476,20260709_184636,,,,,,ground_idle,,,,,,,,,False,0.010676831938326359,0.004787836689502001,0.9988883137702942,0.19014377892017365,-0.1501838117837906,-0.3046637177467346,-3.0,1.0,42.0,29.0,0.029,0.0021860760170966387,-0.00038792871055193245,0.02841285616159439,0.0008056330261752009,-0.0018159288447350264,-0.002795842941850424,0.29795601963996887,0.5885826945304871,-0.06604716181755066,0.02835981734097004,-0.003058484522625804,4.219840320729418e-06,0.00020890602900180966,3.578885793685913,10.0,0.0,0.0,0.0,0.0,0.0,32.766,32.766,32.766,32.766,32.766,,,,,False,
1783648001.462982,2026-07-09T18:46:41,12484,20260709_184636,,,,,,ground_idle,,,,,,,,,False,0.008265824057161808,0.007097445894032717,0.9986326694488525,-0.22511178255081177,0.0055767931044101715,0.10885689407587051,-1.0,-4.0,43.0,29.0,0.029,0.0028385911136865616,0.0004887441173195839,0.02835981734097004,0.004175026901066303,0.002697858726605773,-0.0030046484898775816,0.2834988832473755,0.590225338935852,-0.06674142181873322,0.02835981734097004,-0.003058484522625804,4.219840320729418e-06,0.00020890602900180966,3.578885793685913,10.0,0.0,0.0,0.0,0.0,0.0,32.766,32.766,32.766,32.766,32.766,,,,,False,
1783648001.473165,2026-07-09T18:46:41,12492,20260709_184636,,,,,,ground_idle,,,,,,,,,False,0.011263939552009106,0.007017639931291342,1.0019199848175049,-0.06359227746725082,0.4208621084690094,-0.09057121723890305,-1.0,4.0,27.0,29.0,0.029,0.0028385911136865616,0.0004887441173195839,0.02835981734097004,0.004175026901066303,0.002697858726605773,-0.0030046484898775816,0.2834988832473755,0.590225338935852,-0.06674142181873322,0.02835981734097004,-0.003058484522625804,4.219840320729418e-06,0.00020890602900180966,3.578885793685913,10.0,0.0,0.0,0.0,0.0,0.0,32.766,32.766,32.766,32.766,32.766,,,,,False,
1783648001.4833372,2026-07-09T18:46:41,12504,20260709_184636,,,,,,ground_idle,,,,,,,,,False,0.011101016774773598,0.0074986000545322895,1.0022640228271484,0.16196686029434204,-0.30816885828971863,-0.1627560555934906,6.0,0.0,28.0,29.0,0.029,0.0019714366644620895,-0.0006081869942136109,0.02861177735030651,-0.0004670250345952809,-0.0029610178899019957,-0.0013280082494020462,0.33876070380210876,0.5856788754463196,-0.06796940416097641,0.02835981734097004,-0.003058484522625804,4.219840320729418e-06,0.00020890602900180966,3.578885793685913,10.0,0.0,0.0,0.0,0.0,0.0,32.766,32.766,32.766,32.766,32.766,,,,,False,
1783648001.4934998,2026-07-09T18:46:41,12512,20260709_184636,,,,,,ground_idle,,,,,,,,,False,0.010954623110592365,0.005837063305079937,1.0005866289138794,0.11983521282672882,0.22755809128284454,0.06583420932292938,-3.0,4.0,35.0,29.0,0.029,0.0019714366644620895,-0.0006081869942136109,0.02861177735030651,-0.0004670250345952809,-0.0029610178899019957,-0.0013280082494020462,0.33876070380210876,0.5856788754463196,-0.06796940416097641,0.02835981734097004,-0.003058484522625804,4.219840320729418e-06,0.00020890602900180966,3.578885793685913,10.0,0.0,0.0,0.0,0.0,0.0,32.766,32.766,32.766,32.766,32.766,,,,,False,
1783648001.5036442,2026-07-09T18:46:41,12526,20260709_184636,,,,,,ground_idle,,,,,,,,,False,0.012161476537585258,0.005614114925265312,1.0001041889190674,-0.21805235743522644,-0.4623188078403473,-0.24434277415275574,3.0,-3.0,39.0,29.0,0.029,0.001748246024362743,-0.0005979431443847716,0.028598541393876076,-0.0012348551535978913,-0.0026234996039420366,-0.001008170424029231,0.33774426579475403,0.5927515625953674,-0.06830421090126038,0.02859889343380928,-0.0009762688423506916,4.096473730896832e-06,0.00020360622147563845,3.5736072063446045,10.0,0.0,0.0,0.0,0.0,0.0,32.766,32.766,1.175,32.766,32.766,,,,,False,
1783648001.5138462,2026-07-09T18:46:41,12539,20260709_184636,,,,,,ground_idle,,,,,,,,,False,0.007711215876042843,0.00539621664211154,1.0006259679794312,0.15547972917556763,0.3237973749637604,-0.11139824241399765,-4.0,-5.0,38.0,29.0,0.029,0.001748246024362743,-0.0005979431443847716,0.028598541393876076,-0.0012348551535978913,-0.0026234996039420366,-0.001008170424029231,0.33774426579475403,0.5927515625953674,-0.06830421090126038,0.02859889343380928,-0.0009762688423506916,4.096473730896832e-06,0.00020360622147563845,3.5736072063446045,10.0,0.0,0.0,0.0,0.0,0.0,32.766,32.766,1.175,32.766,32.766,2023.338134765625,809.5341796875,29.5919132232666,,False,
1783648001.5239825,2026-07-09T18:46:41,12549,20260709_184636,,,,,,ground_idle,,,,,,,,,False,0.010459176264703274,0.005405685864388943,1.0008156299591064,-0.17705371975898743,0.16269360482692719,-0.018339158967137337,3.0,2.0,32.0,26.0,0.026,0.002412725007161498,-0.000371806527255103,0.02750370092689991,0.0022145435214042664,-0.0015773039776831865,-0.006563940551131964,0.3339671492576599,0.583989679813385,-0.07009370625019073,0.02859889343380928,-0.0009762688423506916,4.096473730896832e-06,0.00020360622147563845,3.5736072063446045,10.0,0.0,0.0,0.0,0.0,0.0,32.766,32.766,1.175,32.766,32.766,2023.338134765625,809.5341796875,29.5919132232666,,False,
1783648001.5341012,2026-07-09T18:46:41,12559,20260709_184636,,,,,,ground_idle,,,,,,,,,False,0.010436165146529675,0.005280753597617149,1.000017523765564,0.20668001472949982,0.1287762075662613,0.06350448727607727,1.0,2.0,33.0,26.0,0.026,0.002412725007161498,-0.000371806527255103,0.02750370092689991,0.0022145435214042664,-0.0015773039776831865,-0.006563940551131964,0.3339671492576599,0.583989679813385,-0.07009370625019073,0.02859889343380928,-0.0009762688423506916,4.096473730896832e-06,0.00020360622147563845,3.5736072063446045,10.0,0.0,0.0,0.0,0.0,0.0,32.766,32.766,1.175,32.766,32.766,2023.338134765625,809.5341796875,29.5919132232666,,False,
1783648001.5442233,2026-07-09T18:46:41,12569,20260709_184636,,,,,,ground_idle,,,,,,,,,False,0.011466008611023426,0.006156438961625099,0.9988877773284912,-0.10537543147802353,0.33561787009239197,-0.07973065972328186,0.0,-2.0,38.0,26.0,0.026,0.002408475847914815,-0.0005865755374543369,0.02737542614340782,0.0019333603559061885,-0.00259445421397686,-0.006381033919751644,0.3309195935726166,0.5795522332191467,-0.07172510772943497,0.02859889343380928,-0.0009762688423506916,4.096473730896832e-06,0.00020360622147563845,3.5736072063446045,10.0,0.0,0.0,0.0,0.0,0.0,32.766,32.766,1.175,32.766,32.766,2023.338134765625,809.5341796875,29.5919132232666,,False,
1783648001.554344,2026-07-09T18:46:41,12579,20260709_184636,,,,,,ground_idle,,,,,,,,,False,0.011310139670968056,0.004188749473541975,1.0003132820129395,-0.07498317211866379,0.06954634189605713,-0.11448206752538681,0.0,2.0,42.0,26.0,0.026,0.002408475847914815,-0.0005865755374543369,0.02737542614340782,0.0019333603559061885,-0.00259445421397686,-0.006381033919751644,0.3309195935726166,0.5795522332191467,-0.07172510772943497,0.02725783921778202,-0.006446513347327709,4.019132575194817e-06,0.00020165590103715658,3.578885793685913,10.0,0.0,0.0,0.0,0.0,0.0,32.766,32.766,1.175,32.766,32.766,2023.338134765625,809.5341796875,29.5919132232666,,False,
1783648001.5644684,2026-07-09T18:46:41,12589,20260709_184636,,,,,,ground_idle,,,,,,,,,False,0.01148970052599907,0.005310418084263802,1.0013387203216553,0.010660056956112385,-0.05298091471195221,-0.1558365672826767,-8.0,0.0,42.0,26.0,0.026,0.0019837708678096533,0.0010963000822812319,0.02725783921778202,-0.0001931745355250314,0.006565709598362446,-0.006419212557375431,0.33295881748199463,0.5681644082069397,-0.0729832723736763,0.02725783921778202,-0.006446513347327709,4.019132575194817e-06,0.00020165590103715658,3.578885793685913,10.0,0.0,0.0,0.0,0.0,0.0,32.766,32.766,1.175,32.766,32.766,2023.338134765625,809.5341796875,29.5919132232666,,False,
1783648001.574595,2026-07-09T18:46:41,12592,20260709_184636,,,,,,ground_idle,,,,,,,,,False,0.01148970052599907,0.005310418084263802,1.0013387203216553,0.010660056956112385,-0.05298091471195221,-0.1558365672826767,8.0,-1.0,22.0,27.0,0.027,0.0019837708678096533,0.0010963000822812319,0.02725783921778202,-0.0001931745355250314,0.006565709598362446,-0.006419212557375431,0.33295881748199463,0.5681644082069397,-0.0729832723736763,0.02725783921778202,-0.006446513347327709,4.019132575194817e-06,0.00020165590103715658,3.578885793685913,10.0,0.0,0.0,0.0,0.0,0.0,32.766,32.766,1.175,32.766,32.766,2023.338134765625,809.5341796875,29.5919132232666,,False,
1783648001.5847123,2026-07-09T18:46:41,12609,20260709_184636,,,,,,ground_idle,,,,,,,,,False,0.010449751280248165,0.005604879464954138,0.9992268085479736,0.18990221619606018,0.31347015500068665,-0.018073849380016327,0.0,1.0,22.0,27.0,0.027,0.001985332928597927,-0.0005949049373157322,0.02706231363117695,1.8080530935549177e-05,-0.002676918637007475,-0.006626509130001068,0.33074951171875,0.5770801305770874,-0.07495167851448059,0.02725783921778202,-0.006446513347327709,4.019132575194817e-06,0.00020165590103715658,3.578885793685913,10.0,0.0,0.0,0.0,0.0,0.0,32.766,32.766,1.175,32.766,32.766,2023.338134765625,809.5341796875,29.5919132232666,,False,
1783648001.5949013,2026-07-09T18:46:41,12619,20260709_184636,,,,,,ground_idle,,,,,,,,,False,0.010016153566539288,0.005751244258135557,0.9990206360816956,-0.11256102472543716,-0.07722552865743637,-0.033328186720609665,0.0,0.0,37.0,27.0,0.027,0.001985332928597927,-0.0005949049373157322,0.02706231363117695,1.8080530935549177e-05,-0.002676918637007475,-0.006626509130001068,0.33074951171875,0.5770801305770874,-0.07495167851448059,0.02725783921778202,-0.006446513347327709,4.019132575194817e-06,0.00020165590103715658,3.578885793685913,10.0,0.0,0.0,0.0,0.0,0.0,32.766,32.766,1.175,32.766,32.766,2023.338134765625,809.5341796875,29.5919132232666,,False,
1783648001.6050222,2026-07-09T18:46:41,12626,20260709_184636,,,,,,ground_idle,,,,,,,,,False,0.010016153566539288,0.005751244258135557,0.9990206360816956,-0.11256102472543716,-0.07722552865743637,-0.033328186720609665,-3.0,-4.0,41.0,27.0,0.027,0.0028738491237163544,3.947474033338949e-05,0.026935365051031113,0.004807384684681892,0.001033144653774798,-0.006578598637133837,0.303312748670578,0.5335875153541565,-0.07405912131071091,0.0268819872289896,-0.006572510115802288,3.9775395634933375e-06,0.00020122255955357105,3.5736072063446045,10.0,0.0,0.0,0.0,0.0,0.0,32.766,32.766,32.766,32.766,32.766,2023.338134765625,809.5341796875,29.5919132232666,,False,
1783648001.615199,2026-07-09T18:46:41,12639,20260709_184636,,,,,,ground_idle,,,,,,,,,False,0.009938945062458515,0.003820963203907013,1.0008471012115479,-0.08268600702285767,0.015114299021661282,-0.24405986070632935,0.0,7.0,41.0,27.0,0.027,0.0028738491237163544,3.947474033338949e-05,0.026935365051031113,0.004807384684681892,0.001033144653774798,-0.006578598637133837,0.303312748670578,0.5335875153541565,-0.07405912131071091,0.0268819872289896,-0.006572510115802288,3.9775395634933375e-06,0.00020122255955357105,3.5736072063446045,10.0,0.0,0.0,0.0,0.0,0.0,32.766,32.766,32.766,32.766,32.766,2023.3599853515625,809.5321044921875,29.59921646118164,,False,
1783648001.6253717,2026-07-09T18:46:41,12649,20260709_184636,,,,,,ground_idle,,,,,,,,,False,0.011541618034243584,0.004439998883754015,1.001314401626587,-0.18940632045269012,-0.06400363147258759,-0.22119581699371338,1.0,-3.0,27.0,29.0,0.029,0.0019951711874455214,-0.00018469564383849502,0.027686910703778267,5.466909715323709e-05,-0.00026595985400490463,-0.0022082768846303225,0.31179317831993103,0.5667684078216553,-0.07402218133211136,0.0268819872289896,-0.006572510115802288,3.9775395634933375e-06,0.00020122255955357105,3.5736072063446045,10.0,0.0,0.0,0.0,0.0,0.0,32.766,32.766,32.766,32.766,32.766,2023.3599853515625,809.5321044921875,29.59921646118164,,False,
1783648001.635533,2026-07-09T18:46:41,12659,20260709_184636,,,,,,ground_idle,,,,,,,,,False,0.011265980079770088,0.006959094200283289,1.0006670951843262,0.13050468266010284,-0.2307259887456894,-0.16336841881275177,-2.0,-4.0,35.0,29.0,0.029,0.0019951711874455214,-0.00018469564383849502,0.027686910703778267,5.466909715323709e-05,-0.00026595985400490463,-0.0022082768846303225,0.31179317831993103,0.5667684078216553,-0.07402218133211136,0.0268819872289896,-0.006572510115802288,3.9775395634933375e-06,0.00020122255955357105,3.5736072063446045,10.0,0.0,0.0,0.0,0.0,0.0,32.766,32.766,32.766,32.766,32.766,2023.3599853515625,809.5321044921875,29.59921646118164,,False,
1783648001.645664,2026-07-09T18:46:41,12669,20260709_184636,,,,,,ground_idle,,,,,,,,,False,0.012308795005083084,0.0065333545207977295,0.9984726309776306,-0.09446502476930618,0.5203102231025696,-0.010452453047037125,3.0,3.0,34.0,29.0,0.029,0.002212073188275099,-0.0004022143839392811,0.027652684599161148,0.0012012608349323273,-0.0017352862050756812,-0.0019510505953803658,0.32799896597862244,0.5503330230712891,-0.07585825771093369,0.0268819872289896,-0.006572510115802288,3.9775395634933375e-06,0.00020122255955357105,3.5736072063446045,10.0,0.0,0.0,0.0,0.0,0.0,32.766,32.766,32.766,32.766,32.766,2023.3599853515625,809.5321044921875,29.59921646118164,,False,
1783648001.655812,2026-07-09T18:46:41,12679,20260709_184636,,,,,,ground_idle,,,,,,,,,False,0.010516650043427944,0.005173537414520979,0.9991810321807861,0.11954020708799362,0.5323121547698975,0.1460963934659958,1.0,-1.0,36.0,29.0,0.029,0.002212073188275099,-0.0004022143839392811,0.027652684599161148,0.0012012608349323273,-0.0017352862050756812,-0.0019510505953803658,0.32799896597862244,0.5503330230712891,-0.07585825771093369,0.027619706466794014,-0.00201696390286088,4.162888671999099e-06,0.00020821340149268508,3.578885793685913,10.0,0.0,0.0,0.0,0.0,0.0,32.766,32.766,32.766,32.766,32.766,2023.3599853515625,809.5321044921875,29.59921646118164,,False,
1783648001.6659524,2026-07-09T18:46:41,12692,20260709_184636,,,,,,ground_idle,,,,,,,,,False,0.010763312689960003,0.0037113334983587265,1.0034255981445312,-0.0318254679441452,0.14670689404010773,-0.079423688352108,0.0,-4.0,26.0,27.0,0.027,0.0020008657593280077,0.0002378389035584405,0.027619706466794014,0.00027476728428155184,0.002114672912284732,-0.0020036615896970034,0.2915775179862976,0.5318244099617004,-0.07607162743806839,0.027619706466794014,-0.00201696390286088,4.162888671999099e-06,0.00020821340149268508,3.578885793685913,10.0,0.0,0.0,0.0,0.0,0.0,32.766,32.766,32.766,32.766,32.766,2023.3599853515625,809.5321044921875,29.59921646118164,,False,
1783648001.676099,2026-07-09T18:46:41,12699,20260709_184636,,,,,,ground_idle,,,,,,,,,False,0.013132107444107533,0.00512963579967618,1.001735806465149,0.11219038814306259,-0.08717735856771469,-0.14649437367916107,0.0,-4.0,26.0,27.0,0.027,0.0020008657593280077,0.0002378389035584405,0.027619706466794014,0.00027476728428155184,0.002114672912284732,-0.0020036615896970034,0.2915775179862976,0.5318244099617004,-0.07607162743806839,0.027619706466794014,-0.00201696390286088,4.162888671999099e-06,0.00020821340149268508,3.578885793685913,10.0,0.0,0.0,0.0,0.0,0.0,32.766,32.766,32.766,32.766,32.766,2023.3599853515625,809.5321044921875,29.59921646118164,,False,
1783648001.6862316,2026-07-09T18:46:41,12712,20260709_184636,,,,,,ground_idle,,,,,,,,,False,0.01465729158371687,0.004421459510922432,1.0016419887542725,-0.01528242602944374,-0.10984078049659729,0.016898784786462784,0.0,2.0,35.0,27.0,0.027,0.0029132100753486156,0.0002546737086959183,0.02731291390955448,0.0051016490906476974,0.0018377293599769473,-0.0030899662524461746,0.2928149402141571,0.546094536781311,-0.07626383751630783,0.027619706466794014,-0.00201696390286088,4.162888671999099e-06,0.00020821340149268508,3.578885793685913,10.0,0.0,0.0,0.0,0.0,0.0,32.766,32.766,32.766,32.766,32.766,2023.3599853515625,809.5321044921875,29.59921646118164,,False,
1783648001.6963859,2026-07-09T18:46:41,12719,20260709_184636,,,,,,ground_idle,,,,,,,,,False,0.013118223287165165,0.005284045822918415,1.0016553401947021,-0.0793200433254242,0.09531711786985397,0.15415054559707642,0.0,2.0,35.0,27.0,0.027,0.0029132100753486156,0.0002546737086959183,0.02731291390955448,0.0051016490906476974,0.0018377293599769473,-0.0030899662524461746,0.2928149402141571,0.546094536781311,-0.07626383751630783,0.027619706466794014,-0.00201696390286088,4.162888671999099e-06,0.00020821340149268508,3.578885793685913,10.0,0.0,0.0,0.0,0.0,0.0,32.766,32.766,32.766,32.766,32.766,2023.3599853515625,809.5321044921875,29.59921646118164,,False,
1783648001.706506,2026-07-09T18:46:41,12728,20260709_184636,,,,,,ground_idle,,,,,,,,,False,0.013118223287165165,0.005284045822918415,1.0016553401947021,-0.0793200433254242,0.09531711786985397,0.15415054559707642,4.0,0.0,41.0,27.0,0.027,0.002455023815855384,-0.0006414171075448394,0.027260757982730865,0.0030808637384325266,-0.0031893188133835793,-0.002721113385632634,0.33176636695861816,0.5479660630226135,-0.07639410346746445,0.027244100347161293,-0.0025686926674097776,4.071427611052059e-06,0.00020370286074467003,3.5736072063446045,10.0,0.0,0.0,0.0,0.0,0.0,32.766,32.766,32.766,32.766,32.766,2023.338134765625,809.5339965820312,29.605459213256836,,False,
1783648001.7166252,2026-07-09T18:46:41,12739,20260709_184636,,,,,,ground_idle,,,,,,,,,False,0.009426994249224663,0.006639664992690086,1.0002062320709229,-0.33163148164749146,-0.5659499168395996,0.04380335286259651,-6.0,0.0,39.0,27.0,0.027,0.002455023815855384,-0.0006414171075448394,0.027260757982730865,0.0030808637384325266,-0.0031893188133835793,-0.002721113385632634,0.33176636695861816,0.5479660630226135,-0.07639410346746445,0.027244100347161293,-0.0025686926674097776,4.071427611052059e-06,0.00020370286074467003,3.5736072063446045,10.0,0.0,0.0,0.0,0.0,0.0,32.766,32.766,32.766,32.766,32.766,2023.338134765625,809.5339965820312,29.605459213256836,,False,
1783648001.7267482,2026-07-09T18:46:41,12752,20260709_184636,,,,,,ground_idle,,,,,,,,,False,0.011387132108211517,0.007316692732274532,1.0009976625442505,0.21734151244163513,-0.02014840394258499,0.11720442771911621,3.0,4.0,37.0,28.0,0.028,0.0028992125298827887,0.00024412080529145896,0.02753398008644581,0.005587440449744463,0.0015540734166279435,-0.000927586224861443,0.29502618312835693,0.5301685929298401,-0.07709499448537827,0.027244100347161293,-0.0025686926674097776,4.071427611052059e-06,0.00020370286074467003,3.5736072063446045,10.0,0.0,0.0,0.0,0.0,0.0,32.766,32.766,32.766,32.766,32.766,2023.338134765625,809.5339965820312,29.605459213256836,,False,
1783648001.7369115,2026-07-09T18:46:41,12762,20260709_184636,,,,,,ground_idle,,,,,,,,,False,0.009795019403100014,0.005023419391363859,1.000455617904663,-0.3136742413043976,-0.05331721901893616,0.004566436633467674,3.0,4.0,37.0,28.0,0.028,0.0022329227067530155,-0.0004132313479203731,0.027524622157216072,0.0018509568180888891,-0.0016862474149093032,-0.0007563061080873013,0.29502618312835693,0.5301685929298401,-0.07709499448537827,0.027244100347161293,-0.0025686926674097776,4.071427611052059e-06,0.00020370286074467003,3.5736072063446045,10.0,0.0,0.0,0.0,0.0,0.0,32.766,32.766,32.766,32.766,32.766,2023.338134765625,809.5339965820312,29.605459213256836,,False,
1783648001.7470713,2026-07-09T18:46:41,12772,20260709_184636,,,,,,ground_idle,,,,,,,,,False,0.010032018646597862,0.005931047257035971,1.0014606714248657,0.027539478614926338,-0.03477752208709717,0.020745372399687767,-4.0,0.0,37.0,28.0,0.028,0.0022329227067530155,-0.0004132313479203731,0.027524622157216072,0.0018509568180888891,-0.0016862474149093032,-0.0007563061080873013,0.2843889892101288,0.5634467601776123,-0.07653382420539856,0.027244100347161293,-0.0025686926674097776,4.071427611052059e-06,0.00020370286074467003,3.5736072063446045,10.0,0.0,0.0,0.0,0.0,0.0,32.766,32.766,32.766,32.766,32.766,2023.338134765625,809.5339965820312,29.605459213256836,,False,
1783648001.757202,2026-07-09T18:46:41,12782,20260709_184636,,,,,,ground_idle,,,,,,,,,False,0.012203373946249485,0.00496533652767539,0.9993649125099182,0.1034633219242096,-0.22820255160331726,-0.20392179489135742,-4.0,0.0,37.0,28.0,0.028,0.0028838079888373613,-0.0001945104741025716,0.02751811593770981,0.005203280132263899,-0.0005329891573637724,-0.0005305823287926614,0.2843889892101288,0.5634467601776123,-0.07653382420539856,0.02751811593770981,-0.0005763089866377413,4.2198453229502775e-06,0.00020890429732389748,3.578885793685913,10.0,0.0,0.0,0.0,0.0,0.0,32.766,32.766,32.766,32.766,32.766,2023.338134765625,809.5339965820312,29.605459213256836,,False,
1783648001.7673254,2026-07-09T18:46:41,12792,20260709_184636,,,,,,ground_idle,,,,,,,,,False,0.012664061971008778,0.004361951258033514,0.9987039566040039,0.011580785736441612,0.16764581203460693,-0.03643233701586723,0.0,2.0,29.0,31.0,0.031,0.0028838079888373613,-0.0001945104741025716,0.02751811593770981,0.005203280132263899,-0.0005329891573637724,-0.0005305823287926614,0.31128600239753723,0.5557500720024109,-0.07612120360136032,0.02751811593770981,-0.0005763089866377413,4.2198453229502775e-06,0.00020890429732389748,3.578885793685913,10.0,0.0,0.0,0.0,0.0,0.0,32.766,32.766,32.766,32.766,32.766,2023.338134765625,809.5339965820312,29.605459213256836,,False,
1783648001.7774475,2026-07-09T18:46:41,12799,20260709_184636,,,,,,ground_idle,,,,,,,,,False,0.01089164987206459,0.006939014419913292,1.0005338191986084,-0.3441115915775299,-0.2073322981595993,0.03681022301316261,0.0,2.0,29.0,31.0,0.031,0.0028838079888373613,-0.0001945104741025716,0.02751811593770981,0.005203280132263899,-0.0005329891573637724,-0.0005305823287926614,0.31128600239753723,0.5557500720024109,-0.07612120360136032,0.02751811593770981,-0.0005763089866377413,4.2198453229502775e-06,0.00020890429732389748,3.578885793685913,10.0,0.0,0.0,0.0,0.0,0.0,32.766,32.766,32.766,32.766,32.766,2023.338134765625,809.5339965820312,29.605459213256836,,False,
1783648001.7875686,2026-07-09T18:46:41,12812,20260709_184636,,,,,,ground_idle,,,,,,,,,False,0.009792606346309185,0.007235029246658087,0.9999676942825317,0.23072923719882965,0.09113310277462006,-0.009856460615992546,0.0,0.0,38.0,31.0,0.031,0.0024355954956263304,-0.0006271602469496429,0.029080677777528763,0.0029145325534045696,-0.0028937512543052435,0.007158341351896524,0.3277575373649597,0.5568127036094666,-0.07641926407814026,0.02751811593770981,-0.0005763089866377413,4.2198453229502775e-06,0.00020890429732389748,3.578885793685913,10.0,0.0,0.0,0.0,0.0,0.0,32.766,32.766,32.766,32.766,32.766,2023.338134765625,809.5339965820312,29.605459213256836,,False,
1783648001.7976978,2026-07-09T18:46:41,12822,20260709_184636,,,,,,ground_idle,,,,,,,,,False,0.011862113140523434,0.006613914389163256,1.0008820295333862,0.09706401824951172,-0.09348083287477493,0.04719257354736328,0.0,0.0,38.0,31.0,0.031,0.00200176564976573,-0.00019798688299488276,0.029228216037154198,0.00036516529507935047,-3.22965752275195e-05,0.00721199344843626,0.3277575373649597,0.5568127036094666,-0.07641926407814026,0.02751811593770981,-0.0005763089866377413,4.2198453229502775e-06,0.00020890429732389748,3.578885793685913,10.0,0.0,0.0,0.0,0.0,0.0,32.766,32.766,32.766,32.766,32.766,2023.338134765625,809.5339965820312,29.605459213256836,,False,
1783648001.8078365,2026-07-09T18:46:41,12832,20260709_184636,,,,,,ground_idle,,,,,,,,,False,0.012052662670612335,0.0060648382641375065,1.0007126331329346,-0.4209485650062561,0.07491761445999146,-0.18473845720291138,-1.0,0.0,35.0,31.0,0.031,0.00200176564976573,-0.00019798688299488276,0.029228216037154198,0.00036516529507935047,-3.22965752275195e-05,0.00721199344843626,0.2957068383693695,0.5783608555793762,-0.07629207521677017,0.0293007493019104,0.007269297726452351,4.09654421673622e-06,0.00020360432972665876,3.5736072063446045,10.0,0.0,0.0,0.0,0.0,0.0,32.766,32.766,32.766,32.766,32.766,2023.3326416015625,809.5346069335938,29.616039276123047,,False,
1783648001.8179684,2026-07-09T18:46:41,12842,20260709_184636,,,,,,ground_idle,,,,,,,,,False,0.011833871714770794,0.00661492720246315,0.999329149723053,0.008524429053068161,0.04191196709871292,0.08354486525058746,-5.0,0.0,28.0,28.0,0.028,0.0020110157784074545,0.0011476072249934077,0.028830429539084435,0.0006514887209050357,0.00731764966621995,0.004614678211510181,0.2957068383693695,0.5783608555793762,-0.07629207521677017,0.0293007493019104,0.007269297726452351,4.09654421673622e-06,0.00020360432972665876,3.5736072063446045,10.0,0.0,0.0,0.0,0.0,0.0,32.766,32.766,32.766,32.766,32.766,2023.3326416015625,809.5346069335938,29.616039276123047,,False,
1783648001.8280852,2026-07-09T18:46:41,12852,20260709_184636,,,,,,ground_idle,,,,,,,,,False,0.010746900923550129,0.004930902272462845,1.0003786087036133,0.13285987079143524,0.13290880620479584,0.1380157619714737,0.0,-1.0,37.0,28.0,0.028,0.0020110157784074545,0.0011476072249934077,0.028830429539084435,0.0006514887209050357,0.00731764966621995,0.004614678211510181,0.2478783279657364,0.5774486660957336,-0.07680383324623108,0.0293007493019104,0.007269297726452351,4.09654421673622e-06,0.00020360432972665876,3.5736072063446045,10.0,0.0,0.0,0.0,0.0,0.0,32.766,32.766,32.766,32.766,32.766,2023.3326416015625,809.5346069335938,29.616039276123047,,False,
1783648001.8382025,2026-07-09T18:46:41,12862,20260709_184636,,,,,,ground_idle,,,,,,,,,False,0.011720358394086361,0.005582357756793499,0.9986302256584167,-0.14481578767299652,-0.2556777000427246,0.05635947361588478,3.0,-3.0,41.0,28.0,0.028,0.002894566860049963,0.00047106496640481055,0.028931088745594025,0.005499828606843948,0.00323640089482069,0.004670412745326757,0.2478783279657364,0.5774486660957336,-0.07680383324623108,0.0293007493019104,0.007269297726452351,4.09654421673622e-06,0.00020360432972665876,3.5736072063446045,10.0,0.0,0.0,0.0,0.0,0.0,32.766,32.766,32.766,32.766,32.766,2023.3326416015625,809.5346069335938,29.616039276123047,,False,
1783648001.84832,2026-07-09T18:46:41,12872,20260709_184636,,,,,,ground_idle,,,,,,,,,False,0.009644354693591595,0.005558448377996683,1.000063180923462,0.11176855862140656,-0.17045487463474274,-0.014084074646234512,1.0,2.0,41.0,28.0,0.028,0.002894566860049963,0.00047106496640481055,0.028931088745594025,0.005499828606843948,0.00323640089482069,0.004670412745326757,0.28285935521125793,0.5396113991737366,-0.07507675141096115,0.0293007493019104,0.007269297726452351,4.09654421673622e-06,0.00020360432972665876,3.5736072063446045,10.0,0.0,0.0,0.0,0.0,0.0,32.766,32.766,32.766,32.766,32.766,2023.3326416015625,809.5346069335938,29.616039276123047,,False,
1783648001.8584397,2026-07-09T18:46:41,12882,20260709_184636,,,,,,ground_idle,,,,,,,,,False,0.011701097711920738,0.006125159561634064,1.0014060735702515,-0.05846446380019188,-0.0888003334403038,-0.035175446420907974,4.0,0.0,38.0,28.0,0.028,0.0024455285165458918,-0.0006269874866120517,0.029030457139015198,0.0029089644085615873,-0.0027737258933484554,0.004633257165551186,0.28285935521125793,0.5396113991737366,-0.07507675141096115,0.029030457139015198,0.004620251711457968,4.228756552038249e-06,0.0002086720196530223,3.578885793685913,10.0,0.0,0.0,0.0,0.0,0.0,32.766,32.766,32.766,32.766,32.766,2023.3326416015625,809.5346069335938,29.616039276123047,,False,
1783648001.8685672,2026-07-09T18:46:41,12892,20260709_184636,,,,,,ground_idle,,,,,,,,,False,0.011021344922482967,0.004786676727235317,0.997879147529602,-0.1661672443151474,0.21984492242336273,-0.16380998492240906,0.0,1.0,25.0,28.0,0.028,0.0024455285165458918,-0.0006269874866120517,0.029030457139015198,0.0029089644085615873,-0.0027737258933484554,0.004633257165551186,0.3295612335205078,0.5635454058647156,-0.07402762770652771,0.029030457139015198,0.004620251711457968,4.228756552038249e-06,0.0002086720196530223,3.578885793685913,10.0,0.0,0.0,0.0,0.0,0.0,32.766,32.766,32.766,32.766,32.766,2023.3326416015625,809.5346069335938,29.616039276123047,,False,
1783648001.8786902,2026-07-09T18:46:41,12902,20260709_184636,,,,,,ground_idle,,,,,,,,,False,0.009849228896200657,0.005817534402012825,1.0013397932052612,-0.0635569766163826,-0.2632499039173126,-0.1423451006412506,0.0,0.0,24.0,28.0,0.028,0.0022462583146989346,-0.0006483334000222385,0.02863890491425991,0.0018623309442773461,-0.002696731360629201,0.0022235095966607332,0.3295612335205078,0.5635454058647156,-0.07402762770652771,0.029030457139015198,0.004620251711457968,4.228756552038249e-06,0.0002086720196530223,3.578885793685913,10.0,0.0,0.0,0.0,0.0,0.0,32.766,32.766,32.766,32.766,32.766,2023.3326416015625,809.5346069335938,29.616039276123047,,False,
1783648001.8888164,2026-07-09T18:46:41,12912,20260709_184636,,,,,,ground_idle,,,,,,,,,False,0.010346579365432262,0.005721241235733032,1.0016858577728271,-0.14546647667884827,0.20811006426811218,-0.060276031494140625,-8.0,0.0,39.0,28.0,0.028,0.0022462583146989346,-0.0006483334000222385,0.02863890491425991,0.0018623309442773461,-0.002696731360629201,0.0022235095966607332,0.2485344558954239,0.5727380514144897,-0.07523780316114426,0.029030457139015198,0.004620251711457968,4.228756552038249e-06,0.0002086720196530223,3.578885793685913,10.0,0.0,0.0,0.0,0.0,0.0,32.766,32.766,32.766,32.766,32.766,2023.3326416015625,809.5346069335938,29.616039276123047,,False,
1783648001.8990402,2026-07-09T18:46:41,12922,20260709_184636,,,,,,ground_idle,,,,,,,,,False,0.00999368354678154,0.004397607408463955,1.0011337995529175,0.13738912343978882,0.534787118434906,0.09593069553375244,7.0,-1.0,39.0,28.0,0.028,0.0024712570011615753,-0.00040868809446692467,0.02871585823595524,0.0029006933327764273,-0.0015309251612052321,0.0026560951955616474,0.2485344558954239,0.5727380514144897,-0.07523780316114426,0.029030457139015198,0.004620251711457968,4.228756552038249e-06,0.0002086720196530223,3.578885793685913,10.0,0.0,0.0,0.0,0.0,0.0,32.766,32.766,32.766,32.766,32.766,2023.3326416015625,809.5346069335938,29.616039276123047,,False,
1783648001.9091606,2026-07-09T18:46:41,12932,20260709_184636,,,,,,ground_idle,,,,,,,,,False,0.008950081653892994,0.005073798820376396,0.9985231161117554,0.05606863275170326,0.16627979278564453,-0.04011479765176773,-3.0,2.0,35.0,28.0,0.028,0.0024712570011615753,-0.00040868809446692467,0.02871585823595524,0.0029006933327764273,-0.0015309251612052321,0.0026560951955616474,0.2872350215911865,0.5830717086791992,-0.07709707319736481,0.02874745987355709,0.0027389777824282646,4.09772928833263e-06,0.00020346330711618066,3.5736072063446045,10.0,0.0,0.0,0.0,0.0,0.0,32.766,32.766,1.1500000000000001,32.766,32.766,2023.3216552734375,809.5354614257812,29.621641159057617,,False,
1783648001.9222476,2026-07-09T18:46:41,12944,20260709_184636,,,,,,ground_idle,,,,,,,,,False,0.01027416717261076,0.0058030858635902405,1.0006643533706665,-0.08590541779994965,0.05852894112467766,-0.046736396849155426,3.0,-1.0,42.0,30.0,0.03,0.0022372021339833736,-0.0004030289710499346,0.029297592118382454,0.0014042536495253444,-0.0015602326020598412,0.0052390797063708305,0.2975102961063385,0.5775942802429199,-0.07736243307590485,0.02874745987355709,0.0027389777824282646,4.09772928833263e-06,0.00020346330711618066,3.5736072063446045,10.0,0.0,0.0,0.0,0.0,0.0,32.766,32.766,1.1500000000000001,32.766,32.766,2023.3216552734375,809.5354614257812,29.621641159057617,,False,
1783648001.9323847,2026-07-09T18:46:41,12952,20260709_184636,,,,,,ground_idle,,,,,,,,,False,0.010417269542813301,0.006711491849273443,1.0011776685714722,-0.08235171437263489,0.17699454724788666,-0.11582095175981522,-2.0,1.0,39.0,30.0,0.03,0.0022372021339833736,-0.0004030289710499346,0.029297592118382454,0.0014042536495253444,-0.0015602326020598412,0.0052390797063708305,0.2975102961063385,0.5775942802429199,-0.07736243307590485,0.02874745987355709,0.0027389777824282646,4.09772928833263e-06,0.00020346330711618066,3.5736072063446045,10.0,0.0,0.0,0.0,0.0,0.0,32.766,32.766,1.1500000000000001,32.766,32.766,2023.3216552734375,809.5354614257812,29.621641159057617,,False,
1783648001.942511,2026-07-09T18:46:41,12964,20260709_184636,,,,,,ground_idle,,,,,,,,,False,0.008889283053576946,0.0075783091597259045,1.0016297101974487,0.34905481338500977,0.06157670542597771,0.1466672122478485,-1.0,-1.0,41.0,30.0,0.03,0.002238308545202017,0.0002749827690422535,0.029405778273940086,0.0013570309383794665,0.0022297410760074854,0.005411567632108927,0.2865450978279114,0.5642262101173401,-0.07794103771448135,0.02874745987355709,0.0027389777824282646,4.09772928833263e-06,0.00020346330711618066,3.5736072063446045,10.0,0.0,0.0,0.0,0.0,0.0,32.766,32.766,1.1500000000000001,32.766,32.766,2023.3216552734375,809.5354614257812,29.621641159057617,,False,
1783648001.9526377,2026-07-09T18:46:41,12976,20260709_184636,,,,,,ground_idle,,,,,,,,,False,0.011929545551538467,0.007770966272801161,1.0036225318908691,0.12148169428110123,0.007134203799068928,-0.01727432757616043,0.0,0.0,39.0,30.0,0.03,0.002238308545202017,0.0002749827690422535,0.029405778273940086,0.0013570309383794665,0.0022297410760074854,0.005411567632108927,0.2865450978279114,0.5642262101173401,-0.07794103771448135,0.0295184925198555,0.005894654430449009,4.227630597597454e-06,0.0002086375025101006,3.578885793685913,10.0,0.0,0.0,0.0,0.0,0.0,32.766,32.766,1.1500000000000001,32.766,32.766,2023.3216552734375,809.5354614257812,29.621641159057617,,False,
1783648001.9627626,2026-07-09T18:46:41,12984,20260709_184636,,,,,,ground_idle,,,,,,,,,False,0.010518386028707027,0.008433583192527294,1.000704050064087,-0.1489526927471161,0.11019876599311829,0.0027329076547175646,0.0,-3.0,40.0,30.0,0.03,0.002954200841486454,0.00029647507471963763,0.0295184925198555,0.005097855813801289,0.0025738952681422234,0.005955500062555075,0.29971155524253845,0.5367732048034668,-0.07652769982814789,0.0295184925198555,0.005894654430449009,4.227630597597454e-06,0.0002086375025101006,3.578885793685913,10.0,0.0,0.0,0.0,0.0,0.0,32.766,32.766,1.1500000000000001,32.766,32.766,2023.3216552734375,809.5354614257812,29.621641159057617,,False,
1783648001.9729638,2026-07-09T18:46:41,12992,20260709_184636,,,,,,ground_idle,,,,,,,,,False,0.010288836434483528,0.0071401740424335,0.9999297261238098,-0.10161296278238297,-0.17636610567569733,0.21015334129333496,1.0,0.0,28.0,28.0,0.028,0.002954200841486454,0.00029647507471963763,0.0295184925198555,0.005097855813801289,0.0025738952681422234,0.005955500062555075,0.29971155524253845,0.5367732048034668,-0.07652769982814789,0.0295184925198555,0.005894654430449009,4.227630597597454e-06,0.0002086375025101006,3.578885793685913,10.0,0.0,0.0,0.0,0.0,0.0,32.766,32.766,1.1500000000000001,32.766,32.766,2023.3216552734375,809.5354614257812,29.621641159057617,,False,
1783648001.983121,2026-07-09T18:46:41,13004,20260709_184636,,,,,,ground_idle,,,,,,,,,False,0.011836118996143341,0.005524371284991503,1.002079963684082,0.005667604971677065,0.214669331908226,-0.07039891928434372,-5.0,2.0,24.0,28.0,0.028,0.002488825237378478,0.001219024881720543,0.028929246589541435,0.0023510893806815147,0.007687143981456757,0.002552820835262537,0.2505904734134674,0.5565580129623413,-0.07661130279302597,0.0295184925198555,0.005894654430449009,4.227630597597454e-06,0.0002086375025101006,3.578885793685913,10.0,0.0,0.0,0.0,0.0,0.0,32.766,32.766,1.1500000000000001,32.766,32.766,2023.3216552734375,809.5354614257812,29.621641159057617,,False,
1783648001.9932792,2026-07-09T18:46:41,13012,20260709_184636,,,,,,ground_idle,,,,,,,,,False,0.009427602402865887,0.003987309522926807,1.0012930631637573,0.1123068556189537,-0.1236087754368782,0.23740480840206146,3.0,-2.0,39.0,28.0,0.028,0.002488825237378478,0.001219024881720543,0.028929246589541435,0.0023510893806815147,0.007687143981456757,0.002552820835262537,0.2505904734134674,0.5565580129623413,-0.07661130279302597,0.0295184925198555,0.005894654430449009,4.227630597597454e-06,0.0002086375025101006,3.578885793685913,10.0,0.0,0.0,0.0,0.0,0.0,32.766,32.766,1.1500000000000001,32.766,32.766,2023.3216552734375,809.5354614257812,29.621641159057617,,False,
1783648002.0034332,2026-07-09T18:46:42,13026,20260709_184636,,,,,,ground_idle,,,,,,,,,False,0.009605367667973042,0.005306787323206663,0.9990901350975037,0.1755186766386032,-0.036506835371255875,-0.055913664400577545,2.0,0.0,39.0,28.0,0.028,0.002939204452559352,5.772962686023675e-05,0.028994640335440636,0.00455260556191206,0.0010205218568444252,0.0029079404193907976,0.25700002908706665,0.5596343278884888,-0.07649019360542297,0.029026536270976067,0.002779360394924879,4.096650627616327e-06,0.0002034947247011587,3.5736072063446045,10.0,0.0,0.0,0.0,0.0,0.0,32.766,32.766,32.766,32.766,32.766,2023.3216552734375,809.5354614257812,29.621641159057617,,False,
1783648002.013568,2026-07-09T18:46:42,13032,20260709_184636,,,,,,ground_idle,,,,,,,,,False,0.01142793521285057,0.0036258616019040346,0.998621940612793,0.09271813929080963,-0.10744199901819229,0.06066989153623581,-5.0,2.0,37.0,28.0,0.028,0.002939204452559352,5.772962686023675e-05,0.028994640335440636,0.00455260556191206,0.0010205218568444252,0.0029079404193907976,0.25700002908706665,0.5596343278884888,-0.07649019360542297,0.029026536270976067,0.002779360394924879,4.096650627616327e-06,0.0002034947247011587,3.5736072063446045,10.0,0.0,0.0,0.0,0.0,0.0,32.766,32.766,32.766,32.766,32.766,2023.3162841796875,809.5361328125,29.62923812866211,,False,
1783648002.0237098,2026-07-09T18:46:42,13044,20260709_184636,,,,,,ground_idle,,,,,,,,,False,0.011728019453585148,0.005018529947847128,0.9984005689620972,0.0202407818287611,0.4477737545967102,-0.2006291002035141,5.0,-2.0,39.0,27.0,0.027,0.002944916719570756,5.451338438433595e-05,0.02821943536400795,0.0043825916945934296,0.0005195869598537683,-0.0014579149428755045,0.2631082236766815,0.5792616605758667,-0.07733023166656494,0.029026536270976067,0.002779360394924879,4.096650627616327e-06,0.0002034947247011587,3.5736072063446045,10.0,0.0,0.0,0.0,0.0,0.0,32.766,32.766,32.766,32.766,32.766,2023.3162841796875,809.5361328125,29.62923812866211,,False,
1783648002.0338724,2026-07-09T18:46:42,13059,20260709_184636,,,,,,ground_idle,,,,,,,,,False,0.011498358100652695,0.007168027106672525,1.001124382019043,0.16596761345863342,0.14137160778045654,-0.1757536679506302,-5.0,4.0,40.0,27.0,0.027,0.002944916719570756,5.451338438433595e-05,0.02821943536400795,0.0043825916945934296,0.0005195869598537683,-0.0014579149428755045,0.2631082236766815,0.5792616605758667,-0.07733023166656494,0.029026536270976067,0.002779360394924879,4.096650627616327e-06,0.0002034947247011587,3.5736072063446045,10.0,0.0,0.0,0.0,0.0,0.0,32.766,32.766,32.766,32.766,32.766,2023.3162841796875,809.5361328125,29.62923812866211,,False,
1783648002.0440419,2026-07-09T18:46:42,13069,20260709_184636,,,,,,ground_idle,,,,,,,,,False,0.011131826788187027,0.00787931028753519,0.9993833899497986,0.17771832644939423,0.5410512685775757,0.03535040095448494,3.0,-4.0,35.0,27.0,0.027,0.00293557601980865,0.0005025494028814137,0.028203502297401428,0.0046689766459167,0.002576695755124092,-0.001432454795576632,0.3019714951515198,0.5755810737609863,-0.07610943168401718,0.029026536270976067,0.002779360394924879,4.096650627616327e-06,0.0002034947247011587,3.5736072063446045,10.0,0.0,0.0,0.0,0.0,0.0,32.766,32.766,32.766,32.766,32.766,2023.3162841796875,809.5361328125,29.62923812866211,,False,
1783648002.0542042,2026-07-09T18:46:42,13079,20260709_184636,,,,,,ground_idle,,,,,,,,,False,0.011369992047548294,0.004361176397651434,0.9993973970413208,0.09448952972888947,-0.13287174701690674,0.029920479282736778,1.0,4.0,42.0,27.0,0.027,0.00293557601980865,0.0005025494028814137,0.028203502297401428,0.0046689766459167,0.002576695755124092,-0.001432454795576632,0.3019714951515198,0.5755810737609863,-0.07610943168401718,0.028185006231069565,-0.0014036427019163966,4.227044428262161e-06,0.00020868965657427907,3.578885793685913,10.0,0.0,0.0,0.0,0.0,0.0,32.766,32.766,32.766,32.766,32.766,2023.3162841796875,809.5361328125,29.62923812866211,,False,
1783648002.0643363,2026-07-09T18:46:42,13089,20260709_184636,,,,,,ground_idle,,,,,,,,,False,0.009795790538191795,0.00533879641443491,1.0012714862823486,0.011548572219908237,0.11280292272567749,-0.08803790807723999,3.0,-4.0,43.0,27.0,0.027,0.002929147332906723,-0.00038705323822796345,0.028185006231069565,0.004716519732028246,-0.0018820055993273854,-0.001370487385429442,0.33053380250930786,0.5553157329559326,-0.07842274755239487,0.028185006231069565,-0.0014036427019163966,4.227044428262161e-06,0.00020868965657427907,3.578885793685913,10.0,0.0,0.0,0.0,0.0,0.0,32.766,32.766,32.766,32.766,32.766,2023.3162841796875,809.5361328125,29.62923812866211,,False,
1783648002.0744631,2026-07-09T18:46:42,13099,20260709_184636,,,,,,ground_idle,,,,,,,,,False,0.009424740448594093,0.007178079802542925,1.001319408416748,0.009193366393446922,0.07210692763328552,0.006892759818583727,0.0,2.0,24.0,27.0,0.027,0.002929147332906723,-0.00038705323822796345,0.028185006231069565,0.004716519732028246,-0.0018820055993273854,-0.001370487385429442,0.33053380250930786,0.5553157329559326,-0.07842274755239487,0.028185006231069565,-0.0014036427019163966,4.227044428262161e-06,0.00020868965657427907,3.578885793685913,10.0,0.0,0.0,0.0,0.0,0.0,32.766,32.766,32.766,32.766,32.766,2023.3162841796875,809.5361328125,29.62923812866211,,False,
1783648002.0845914,2026-07-09T18:46:42,13109,20260709_184636,,,,,,ground_idle,,,,,,,,,False,0.010792214423418045,0.005099404603242874,0.9999133944511414,-0.11366860568523407,0.09248453378677368,-0.2522539794445038,0.0,0.0,26.0,27.0,0.027,0.00251624989323318,-0.00040019903099164367,0.027631785720586777,0.002379463752731681,-0.001912932493723929,-0.0038778455927968025,0.33894798159599304,0.5527290105819702,-0.07871950417757034,0.028185006231069565,-0.0014036427019163966,4.227044428262161e-06,0.00020868965657427907,3.578885793685913,10.0,0.0,0.0,0.0,0.0,0.0,32.766,32.766,32.766,32.766,32.766,2023.3162841796875,809.5361328125,29.62923812866211,,False,
1783648002.0947177,2026-07-09T18:46:42,13119,20260709_184636,,,,,,ground_idle,,,,,,,,,False,0.012029062025249004,0.0050385333597660065,1.0010768175125122,-0.1159292533993721,0.25387629866600037,-0.07604259997606277,1.0,0.0,38.0,27.0,0.027,0.00251624989323318,-0.00040019903099164367,0.027631785720586777,0.002379463752731681,-0.001912932493723929,-0.0038778455927968025,0.33894798159599304,0.5527290105819702,-0.07871950417757034,0.028185006231069565,-0.0014036427019163966,4.227044428262161e-06,0.00020868965657427907,3.578885793685913,10.0,0.0,0.0,0.0,0.0,0.0,32.766,32.766,32.766,32.766,32.766,2023.3162841796875,809.5361328125,29.62923812866211,,False,
1783648002.104895,2026-07-09T18:46:42,13129,20260709_184636,,,,,,ground_idle,,,,,,,,,False,0.009732923470437527,0.005704362411051989,0.9997090101242065,-0.41685912013053894,-0.10612961649894714,-0.08249117434024811,0.0,0.0,40.0,27.0,0.027,0.00253674597479403,-0.0006604064255952835,0.02755562961101532,0.0023592428769916296,-0.0030193841084837914,-0.0037076971493661404,0.3388625979423523,0.5500708222389221,-0.07894296199083328,0.027534442022442818,-0.0035609325859695673,4.096642896911362e-06,0.00020354871230665594,3.5736072063446045,10.0,0.0,0.0,0.0,0.0,0.0,32.766,32.766,1.078,32.766,32.766,2023.5185546875,809.5181884765625,29.631397247314453,,False,
1783648002.1150224,2026-07-09T18:46:42,13139,20260709_184636,,,,,,ground_idle,,,,,,,,,False,0.010020838119089603,0.006644632201641798,0.9993550777435303,0.19913806021213531,-0.15197604894638062,-0.07954415678977966,-8.0,2.0,39.0,27.0,0.027,0.00253674597479403,-0.0006604064255952835,0.02755562961101532,0.0023592428769916296,-0.0030193841084837914,-0.0037076971493661404,0.3388625979423523,0.5500708222389221,-0.07894296199083328,0.027534442022442818,-0.0035609325859695673,4.096642896911362e-06,0.00020354871230665594,3.5736072063446045,10.0,0.0,0.0,0.0,0.0,0.0,32.766,32.766,1.078,32.766,32.766,2023.5185546875,809.5181884765625,29.631397247314453,,False,
1783648002.125144,2026-07-09T18:46:42,13149,20260709_184636,,,,,,ground_idle,,,,,,,,,False,0.009814159944653511,0.005715359002351761,1.0016043186187744,0.1646592617034912,0.09352196007966995,-0.20401833951473236,8.0,-1.0,41.0,27.0,0.027,0.002291359007358551,-0.0006564623326994479,0.027292713522911072,0.001117617473937571,-0.003141346387565136,-0.0045963493175804615,0.33820968866348267,0.5598917603492737,-0.08005756139755249,0.027534442022442818,-0.0035609325859695673,4.096642896911362e-06,0.00020354871230665594,3.5736072063446045,10.0,0.0,0.0,0.0,0.0,0.0,32.766,32.766,1.078,32.766,32.766,2023.5185546875,809.5181884765625,29.631397247314453,,False,
1783648002.1352665,2026-07-09T18:46:42,13159,20260709_184636,,,,,,ground_idle,,,,,,,,,False,0.009426691569387913,0.005244489759206772,0.9997109174728394,0.04315462335944176,-0.11063362658023834,0.005852987989783287,0.0,-1.0,39.0,27.0,0.027,0.002291359007358551,-0.0006564623326994479,0.027292713522911072,0.001117617473937571,-0.003141346387565136,-0.0045963493175804615,0.33820968866348267,0.5598917603492737,-0.08005756139755249,0.027534442022442818,-0.0035609325859695673,4.096642896911362e-06,0.00020354871230665594,3.5736072063446045,10.0,0.0,0.0,0.0,0.0,0.0,32.766,32.766,1.078,32.766,32.766,2023.5185546875,809.5181884765625,29.631397247314453,,False,
1783648002.1453936,2026-07-09T18:46:42,13169,20260709_184636,,,,,,ground_idle,,,,,,,,,False,0.00948958657681942,0.005542638711631298,1.0009671449661255,-0.01968320645391941,-0.087593674659729,0.1419425904750824,0.0,2.0,41.0,27.0,0.027,0.0020551772322505713,-0.0006497161812148988,0.02720206417143345,-0.0002670037792995572,-0.0028030662797391415,-0.00449724355712533,0.29850471019744873,0.5320762991905212,-0.08145593851804733,0.027534442022442818,-0.0035609325859695673,4.096642896911362e-06,0.00020354871230665594,3.5736072063446045,10.0,0.0,0.0,0.0,0.0,0.0,32.766,32.766,1.078,32.766,32.766,2023.5185546875,809.5181884765625,29.631397247314453,,False,
1783648002.1555223,2026-07-09T18:46:42,13179,20260709_184636,,,,,,ground_idle,,,,,,,,,False,0.010938068851828575,0.004841350018978119,1.0031088590621948,-0.2261139452457428,0.02884531579911709,0.31374409794807434,-4.0,-4.0,36.0,27.0,0.027,0.0020551772322505713,-0.0006497161812148988,0.02720206417143345,-0.0002670037792995572,-0.0028030662797391415,-0.00449724355712533,0.29850471019744873,0.5320762991905212,-0.08145593851804733,0.02712298557162285,-0.0043382602743804455,4.227305907988921e-06,0.000208731071325019,3.578885793685913,10.0,0.0,0.0,0.0,0.0,0.0,32.766,32.766,1.078,32.766,32.766,2023.5185546875,809.5181884765625,29.631397247314453,,False,
1783648002.165651,2026-07-09T18:46:42,13189,20260709_184636,,,,,,ground_idle,,,,,,,,,False,0.012522589415311813,0.002681485842913389,1.0004106760025024,0.14082136750221252,0.22277557849884033,0.04564313217997551,1.0,0.0,41.0,27.0,0.027,0.0029896143823862076,4.77874928037636e-05,0.02712298557162285,0.00434077437967062,0.0007807991351000965,-0.004293902311474085,0.3090569078922272,0.5327832102775574,-0.08043838292360306,0.02712298557162285,-0.0043382602743804455,4.227305907988921e-06,0.000208731071325019,3.578885793685913,10.0,0.0,0.0,0.0,0.0,0.0,32.766,32.766,1.078,32.766,32.766,2023.5185546875,809.5181884765625,29.631397247314453,,False,
1783648002.1757758,2026-07-09T18:46:42,13199,20260709_184636,,,,,,ground_idle,,,,,,,,,False,0.013390744104981422,0.0058154393918812275,0.9994911551475525,-0.1418885886669159,0.3742106556892395,-0.012798991054296494,3.0,4.0,24.0,30.0,0.03,0.0029896143823862076,4.77874928037636e-05,0.02712298557162285,0.00434077437967062,0.0007807991351000965,-0.004293902311474085,0.3090569078922272,0.5327832102775574,-0.08043838292360306,0.02712298557162285,-0.0043382602743804455,4.227305907988921e-06,0.000208731071325019,3.578885793685913,10.0,0.0,0.0,0.0,0.0,0.0,32.766,32.766,1.078,32.766,32.766,2023.5185546875,809.5181884765625,29.631397247314453,,False,
1783648002.1859503,2026-07-09T18:46:42,13212,20260709_184636,,,,,,ground_idle,,,,,,,,,False,0.008783172816038132,0.00575361168012023,1.0005549192428589,0.032093971967697144,-0.2675796449184418,0.0058150626718997955,-1.0,0.0,39.0,30.0,0.03,0.002285516122356057,0.0002710482804104686,0.02836794964969158,0.0009182505309581757,0.0017393630696460605,0.0026747817173600197,0.2884044647216797,0.5595808625221252,-0.08063998818397522,0.02712298557162285,-0.0043382602743804455,4.227305907988921e-06,0.000208731071325019,3.578885793685913,10.0,0.0,0.0,0.0,0.0,0.0,32.766,32.766,1.078,32.766,32.766,2023.5185546875,809.5181884765625,29.631397247314453,,False,
1783648002.196079,2026-07-09T18:46:42,13219,20260709_184636,,,,,,ground_idle,,,,,,,,,False,0.010335152968764305,0.00631577568128705,0.9991790056228638,0.17457355558872223,-0.08089584112167358,0.04197969660162926,-1.0,0.0,39.0,30.0,0.03,0.002285516122356057,0.0002710482804104686,0.02836794964969158,0.0009182505309581757,0.0017393630696460605,0.0026747817173600197,0.2884044647216797,0.5595808625221252,-0.08063998818397522,0.02712298557162285,-0.0043382602743804455,4.227305907988921e-06,0.000208731071325019,3.578885793685913,10.0,0.0,0.0,0.0,0.0,0.0,32.766,32.766,1.078,32.766,32.766,2023.5185546875,809.5181884765625,29.631397247314453,,False,
1783648002.2062104,2026-07-09T18:46:42,13229,20260709_184636,,,,,,ground_idle,,,,,,,,,False,0.01104051899164915,0.007421800401061773,1.0017386674880981,-0.1095992848277092,-0.2048412561416626,-0.15855617821216583,4.0,1.0,37.0,30.0,0.03,0.002058262238278985,-0.00040181452641263604,0.028424900025129318,-0.00011498653475428,-0.0018690444994717836,0.002688826061785221,0.29506605863571167,0.5301201939582825,-0.08027520030736923,0.02845694124698639,0.002616445766761899,4.096968041267246e-06,0.0002035719226114452,3.568328619003296,10.0,0.0,0.0,0.0,0.0,0.0,32.766,32.766,32.766,32.766,32.766,2023.420166015625,809.5270385742188,29.643789291381836,,False,
1783648002.2163754,2026-07-09T18:46:42,13239,20260709_184636,,,,,,ground_idle,,,,,,,,,False,0.011353946290910244,0.006122402846813202,1.0008045434951782,-0.3071657419204712,-0.30748841166496277,-0.22438454627990723,-3.0,-4.0,42.0,30.0,0.03,0.002058262238278985,-0.00040181452641263604,0.028424900025129318,-0.00011498653475428,-0.0018690444994717836,0.002688826061785221,0.29506605863571167,0.5301201939582825,-0.08027520030736923,0.02845694124698639,0.002616445766761899,4.096968041267246e-06,0.0002035719226114452,3.568328619003296,10.0,0.0,0.0,0.0,0.0,0.0,32.766,32.766,32.766,32.766,32.766,2023.420166015625,809.5270385742188,29.643789291381836,,False,
1783648002.2265022,2026-07-09T18:46:42,13252,20260709_184636,,,,,,ground_idle,,,,,,,,,False,0.009036686271429062,0.002921381965279579,0.9996433258056641,-0.22459650039672852,0.07277712225914001,0.07634016871452332,0.0,0.0,43.0,29.0,0.029,0.0022825307678431273,0.0002759586786851287,0.028714021667838097,0.0010390636743977666,0.001876970985904336,0.003973525483161211,0.29628652334213257,0.560869038105011,-0.08086023479700089,0.02845694124698639,0.002616445766761899,4.096968041267246e-06,0.0002035719226114452,3.568328619003296,10.0,0.0,0.0,0.0,0.0,0.0,32.766,32.766,32.766,32.766,32.766,2023.420166015625,809.5270385742188,29.643789291381836,,False,
1783648002.2366285,2026-07-09T18:46:42,13259,20260709_184636,,,,,,ground_idle,,,,,,,,,False,0.010742698796093464,0.004619833547621965,0.999366819858551,0.1593054085969925,0.18976204097270966,0.047532130032777786,0.0,0.0,43.0,29.0,0.029,0.0022825307678431273,0.0002759586786851287,0.028714021667838097,0.0010390636743977666,0.001876970985904336,0.003973525483161211,0.29628652334213257,0.560869038105011,-0.08086023479700089,0.02845694124698639,0.002616445766761899,4.096968041267246e-06,0.0002035719226114452,3.568328619003296,10.0,0.0,0.0,0.0,0.0,0.0,32.766,32.766,32.766,32.766,32.766,2023.420166015625,809.5270385742188,29.643789291381836,,False,
1783648002.2467628,2026-07-09T18:46:42,13272,20260709_184636,,,,,,ground_idle,,,,,,,,,False,0.011953957378864288,0.005473444703966379,1.0009416341781616,0.04784887656569481,0.07256601005792618,-0.009344596415758133,4.0,1.0,37.0,29.0,0.029,0.002999059157446027,0.00029272044776007533,0.028794804587960243,0.004707657732069492,0.0016689060721546412,0.004032722674310207,0.29332634806632996,0.5332105755805969,-0.08126853406429291,0.02845694124698639,0.002616445766761899,4.096968041267246e-06,0.0002035719226114452,3.568328619003296,10.0,0.0,0.0,0.0,0.0,0.0,32.766,32.766,32.766,32.766,32.766,2023.420166015625,809.5270385742188,29.643789291381836,,False,
1783648002.2569249,2026-07-09T18:46:42,13282,20260709_184636,,,,,,ground_idle,,,,,,,,,False,0.009941737167537212,0.00715550547465682,1.0012472867965698,0.05856292322278023,-0.06656007468700409,0.0017980682896450162,4.0,1.0,37.0,29.0,0.029,0.0025231936015188694,0.00028249973547644913,0.028887631371617317,0.0022086375392973423,0.0016625231364741921,0.004129884298890829,0.29332634806632996,0.5332105755805969,-0.08126853406429291,0.028887631371617317,0.004099808167666197,4.227635145070963e-06,0.00020874280016869307,3.578885793685913,10.0,0.0,0.0,0.0,0.0,0.0,32.766,32.766,32.766,32.766,32.766,2023.420166015625,809.5270385742188,29.643789291381836,,False,
1783648002.2670703,2026-07-09T18:46:42,13292,20260709_184636,,,,,,ground_idle,,,,,,,,,False,0.010771185159683228,0.006380598992109299,0.9992742538452148,-0.06476576626300812,0.10024115443229675,0.18367546796798706,3.0,0.0,27.0,27.0,0.027,0.0025231936015188694,0.00028249973547644913,0.028887631371617317,0.0022086375392973423,0.0016625231364741921,0.004129884298890829,0.3220379948616028,0.5542060732841492,-0.08172952383756638,0.028887631371617317,0.004099808167666197,4.227635145070963e-06,0.00020874280016869307,3.578885793685913,10.0,0.0,0.0,0.0,0.0,0.0,32.766,32.766,32.766,32.766,32.766,2023.420166015625,809.5270385742188,29.643789291381836,,False,
1783648002.2772017,2026-07-09T18:46:42,13302,20260709_184636,,,,,,ground_idle,,,,,,,,,False,0.010627529583871365,0.005464689806103706,1.0012191534042358,0.06804729998111725,0.1474454700946808,-0.08063036948442459,3.0,0.0,27.0,27.0,0.027,0.0025333839002996683,-0.0006339403917081654,0.02810162492096424,0.0022164604160934687,-0.0028207197319716215,-0.00014324026415124536,0.3220379948616028,0.5542060732841492,-0.08172952383756638,0.028887631371617317,0.004099808167666197,4.227635145070963e-06,0.00020874280016869307,3.578885793685913,10.0,0.0,0.0,0.0,0.0,0.0,32.766,32.766,32.766,32.766,32.766,2023.420166015625,809.5270385742188,29.643789291381836,,False,
1783648002.2873337,2026-07-09T18:46:42,13312,20260709_184636,,,,,,ground_idle,,,,,,,,,False,0.011751431971788406,0.005875659640878439,1.0012211799621582,0.11620856076478958,-0.3188639283180237,0.1180867999792099,-8.0,0.0,35.0,27.0,0.027,0.0025333839002996683,-0.0006339403917081654,0.02810162492096424,0.0022164604160934687,-0.0028207197319716215,-0.00014324026415124536,0.32923802733421326,0.5514271855354309,-0.08040052652359009,0.028887631371617317,0.004099808167666197,4.227635145070963e-06,0.00020874280016869307,3.578885793685913,10.0,0.0,0.0,0.0,0.0,0.0,32.766,32.766,32.766,32.766,32.766,2023.420166015625,809.5270385742188,29.643789291381836,,False,
1783648002.2974648,2026-07-09T18:46:42,13322,20260709_184636,,,,,,ground_idle,,,,,,,,,False,0.013705245219171047,0.00479167839512229,1.0023442506790161,0.0909433662891388,-0.0029916511848568916,-0.11065942049026489,-8.0,0.0,35.0,27.0,0.027,0.0020756376907229424,-0.00039746114634908736,0.028130877763032913,4.375268872536253e-06,-0.0016947905533015728,0.0002622258325573057,0.32923802733421326,0.5514271855354309,-0.08040052652359009,0.028887631371617317,0.004099808167666197,4.227635145070963e-06,0.00020874280016869307,3.578885793685913,10.0,0.0,0.0,0.0,0.0,0.0,32.766,32.766,32.766,32.766,32.766,2023.420166015625,809.5270385742188,29.643789291381836,,False,
1783648002.3075953,2026-07-09T18:46:42,13332,20260709_184636,,,,,,ground_idle,,,,,,,,,False,0.014308050274848938,0.003097586100921035,1.0002455711364746,-0.049043845385313034,-0.012872366234660149,-0.08549264073371887,-3.0,-1.0,40.0,27.0,0.027,0.0020756376907229424,-0.00039746114634908736,0.028130877763032913,4.375268872536253e-06,-0.0016947905533015728,0.0002622258325573057,0.29293158650398254,0.5625830888748169,-0.08055110275745392,0.02813809923827648,0.00046670151641592383,4.097116288903635e-06,0.00020357401808723807,3.5736072063446045,10.0,0.0,0.0,0.0,0.0,0.0,32.766,32.766,32.766,32.766,32.766,2023.40380859375,809.5281982421875,29.651660919189453,,False,
1783648002.3177204,2026-07-09T18:46:42,13339,20260709_184636,,,,,,ground_idle,,,,,,,,,False,0.011928042396903038,0.0032334118150174618,0.9991452693939209,-0.04190899059176445,0.2663823068141937,-0.10514002293348312,-3.0,-1.0,40.0,27.0,0.027,0.0020756376907229424,-0.00039746114634908736,0.028130877763032913,4.375268872536253e-06,-0.0016947905533015728,0.0002622258325573057,0.29293158650398254,0.5625830888748169,-0.08055110275745392,0.02813809923827648,0.00046670151641592383,4.097116288903635e-06,0.00020357401808723807,3.5736072063446045,10.0,0.0,0.0,0.0,0.0,0.0,32.766,32.766,32.766,32.766,32.766,2023.40380859375,809.5281982421875,29.651660919189453,,False,
1783648002.3278568,2026-07-09T18:46:42,13352,20260709_184636,,,,,,ground_idle,,,,,,,,,False,0.010760840028524399,0.003809691173955798,1.001155138015747,0.04671283811330795,0.03581244871020317,-0.1655261218547821,7.0,0.0,44.0,28.0,0.028,0.0023073707707226276,0.001178398379124701,0.02808397449553013,0.0019097918411716819,0.00616423087194562,0.00023556288215331733,0.32295382022857666,0.5631515979766846,-0.08057045936584473,0.02813809923827648,0.00046670151641592383,4.097116288903635e-06,0.00020357401808723807,3.5736072063446045,10.0,0.0,0.0,0.0,0.0,0.0,32.766,32.766,32.766,32.766,32.766,2023.40380859375,809.5281982421875,29.651660919189453,,False,
1783648002.3379936,2026-07-09T18:46:42,13362,20260709_184636,,,,,,ground_idle,,,,,,,,,False,0.008801586925983429,0.005364040844142437,1.0012933015823364,0.14376407861709595,0.5198007225990295,0.16483521461486816,-3.0,0.0,37.0,28.0,0.028,0.002315837424248457,0.00027115410193800926,0.028106996789574623,0.0020791739225387573,0.0009998026071116328,0.0004145562124904245,0.32295382022857666,0.5631515979766846,-0.08057045936584473,0.02813809923827648,0.00046670151641592383,4.097116288903635e-06,0.00020357401808723807,3.5736072063446045,10.0,0.0,0.0,0.0,0.0,0.0,32.766,32.766,32.766,32.766,32.766,2023.40380859375,809.5281982421875,29.651660919189453,,False,
1783648002.3481224,2026-07-09T18:46:42,13372,20260709_184636,,,,,,ground_idle,,,,,,,,,False,0.008508470840752125,0.007671648170799017,0.9975237846374512,0.19602523744106293,-0.053060948848724365,-0.08353407680988312,3.0,1.0,44.0,28.0,0.028,0.002315837424248457,0.00027115410193800926,0.028106996789574623,0.0020791739225387573,0.0009998026071116328,0.0004145562124904245,0.29435330629348755,0.5586392283439636,-0.08178437501192093,0.02813809923827648,0.00046670151641592383,4.097116288903635e-06,0.00020357401808723807,3.5736072063446045,10.0,0.0,0.0,0.0,0.0,0.0,32.766,32.766,32.766,32.766,32.766,2023.40380859375,809.5281982421875,29.651660919189453,,False,
1783648002.3582485,2026-07-09T18:46:42,13382,20260709_184636,,,,,,ground_idle,,,,,,,,,False,0.010293054394423962,0.006518085021525621,0.9993317127227783,0.05620250850915909,0.15606066584587097,-0.0002904523571487516,-4.0,0.0,39.0,28.0,0.028,0.002097692573443055,0.00048300379421561956,0.02812236174941063,0.0006082902546040714,0.0023942936677485704,0.00033511524088680744,0.29435330629348755,0.5586392283439636,-0.08178437501192093,0.02812236174941063,0.000317132449708879,4.227708359394455e-06,0.0002087432803818956,3.5736072063446045,10.0,0.0,0.0,0.0,0.0,0.0,32.766,32.766,32.766,32.766,32.766,2023.40380859375,809.5281982421875,29.651660919189453,,False,
1783648002.368382,2026-07-09T18:46:42,13392,20260709_184636,,,,,,ground_idle,,,,,,,,,False,0.00924553070217371,0.007059391587972641,1.0016367435455322,-0.02745935134589672,0.15513752400875092,-0.22925163805484772,5.0,-2.0,27.0,30.0,0.03,0.002097692573443055,0.00048300379421561956,0.02812236174941063,0.0006082902546040714,0.0023942936677485704,0.00033511524088680744,0.3337339460849762,0.5442572832107544,-0.08241543918848038,0.02812236174941063,0.000317132449708879,4.227708359394455e-06,0.0002087432803818956,3.5736072063446045,10.0,0.0,0.0,0.0,0.0,0.0,32.766,32.766,32.766,32.766,32.766,2023.40380859375,809.5281982421875,29.651660919189453,,False,
1783648002.3785112,2026-07-09T18:46:42,13402,20260709_184636,,,,,,ground_idle,,,,,,,,,False,0.010869660414755344,0.0054299295879900455,1.00192391872406,-0.06266002357006073,-0.1569834202528,-0.06332415342330933,-2.0,0.0,22.0,30.0,0.03,0.002541020978242159,-0.00018995483696926385,0.02898065745830536,0.0027908545453101397,-0.0007785990019328892,0.004639098886400461,0.3337339460849762,0.5442572832107544,-0.08241543918848038,0.02812236174941063,0.000317132449708879,4.227708359394455e-06,0.0002087432803818956,3.5736072063446045,10.0,0.0,0.0,0.0,0.0,0.0,32.766,32.766,32.766,32.766,32.766,2023.40380859375,809.5281982421875,29.651660919189453,,False,
1783648002.388638,2026-07-09T18:46:42,13412,20260709_184636,,,,,,ground_idle,,,,,,,,,False,0.01239690650254488,0.0038593150675296783,1.0021889209747314,0.017588676884770393,0.04946654289960861,0.07726842164993286,-1.0,2.0,41.0,30.0,0.03,0.002541020978242159,-0.00018995483696926385,0.02898065745830536,0.0027908545453101397,-0.0007785990019328892,0.004639098886400461,0.30561161041259766,0.5596306920051575,-0.08278892189264297,0.02812236174941063,0.000317132449708879,4.227708359394455e-06,0.0002087432803818956,3.5736072063446045,10.0,0.0,0.0,0.0,0.0,0.0,32.766,32.766,32.766,32.766,32.766,2023.40380859375,809.5281982421875,29.651660919189453,,False,
1783648002.398776,2026-07-09T18:46:42,13422,20260709_184636,,,,,,arming,,,,,,,,,False,0.010176895186305046,0.006371610797941685,1.0000430345535278,0.10526450723409653,-0.053582075983285904,-0.05145304650068283,0.0,3.0,42.0,30.0,0.03,0.0014479262754321098,2.9560686016338877e-05,0.0290784053504467,-0.002721062395721674,0.00027527858037501574,0.005040423944592476,0.30561161041259766,0.5596306920051575,-0.08278892189264297,0.02812236174941063,0.000317132449708879,4.227708359394455e-06,0.0002087432803818956,3.5736072063446045,10.0,0.0,0.0,0.0,0.0,0.0,32.766,32.766,32.766,32.766,32.766,2023.40380859375,809.5281982421875,29.651660919189453,,False,
1783648002.4089327,2026-07-09T18:46:42,13432,20260709_184636,,,,,,arming,,,,,,,,,False,0.010261877439916134,0.005106344819068909,0.9998887181282043,-0.22817909717559814,0.010042723268270493,-0.17827199399471283,0.0,-7.0,40.0,30.0,0.03,0.0014479262754321098,2.9560686016338877e-05,0.0290784053504467,-0.002721062395721674,0.00027527858037501574,0.005040423944592476,0.3045698404312134,0.586450457572937,-0.08326899260282516,0.02914099022746086,0.0050705294124782085,4.097187229490373e-06,0.0002035754150711,3.568328619003296,10.0,0.0,7000.0,7000.0,7000.0,7000.0,32.766,32.766,1.151,32.766,32.766,2023.37646484375,809.5307006835938,29.658763885498047,,False,
1783648002.4190726,2026-07-09T18:46:42,13444,20260709_184636,,,,,,arming,,,,,,,,,False,0.009015176445245743,0.00776541605591774,1.0008918046951294,0.08804251998662949,-0.10259268432855606,-0.03117113932967186,3.0,2.0,38.0,30.0,0.03,0.002524755895137787,-0.0006168140098452568,0.029552998021245003,0.0028500587213784456,-0.003062630072236061,0.006916641723364592,0.2564583122730255,0.5349268913269043,-0.08269107341766357,0.02914099022746086,0.0050705294124782085,4.097187229490373e-06,0.0002035754150711,3.568328619003296,10.0,0.0,7000.0,7000.0,7000.0,7000.0,32.766,32.766,1.151,32.766,32.766,2023.37646484375,809.5307006835938,29.658763885498047,,False,
1783648002.4292073,2026-07-09T18:46:42,13452,20260709_184636,,,,,,arming,,,,,,,,,False,0.008507107384502888,0.007419177796691656,1.0017335414886475,-0.13346871733665466,0.23134273290634155,-0.07572527974843979,-8.0,-1.0,37.0,30.0,0.03,0.002524755895137787,-0.0006168140098452568,0.029552998021245003,0.0028500587213784456,-0.003062630072236061,0.006916641723364592,0.2564583122730255,0.5349268913269043,-0.08269107341766357,0.02914099022746086,0.0050705294124782085,4.097187229490373e-06,0.0002035754150711,3.568328619003296,10.0,0.0,7000.0,7000.0,7000.0,7000.0,32.766,32.766,1.151,32.766,32.766,2023.37646484375,809.5307006835938,29.658763885498047,,False,
1783648002.4393506,2026-07-09T18:46:42,13462,20260709_184636,,,,,,arming,,,,,,,,,False,0.010911609046161175,0.005278374534100294,0.9999346137046814,0.03875915706157684,0.007118229288607836,0.16858677566051483,3.0,2.0,39.0,30.0,0.03,0.0023176344111561775,0.0004582684487104416,0.029712317511439323,0.00132470834068954,0.0028397454880177975,0.0072865900583565235,0.2564583122730255,0.5349268913269043,-0.08269107341766357,0.02914099022746086,0.0050705294124782085,4.097187229490373e-06,0.0002035754150711,3.568328619003296,10.0,0.0,7000.0,7000.0,7000.0,7000.0,32.766,32.766,1.151,32.766,32.766,2023.37646484375,809.5307006835938,29.658763885498047,,False,
1783648002.4494977,2026-07-09T18:46:42,13475,20260709_184636,,,,,,arming,,,,,,,,,False,0.011255419813096523,0.005838850513100624,0.9994141459465027,-0.18908335268497467,-0.15279488265514374,-0.15268400311470032,1.0,-3.0,44.0,30.0,0.03,0.0023176344111561775,0.0004582684487104416,0.029712317511439323,0.00132470834068954,0.0028397454880177975,0.0072865900583565235,0.28498920798301697,0.5505412817001343,-0.08107435703277588,0.029862698167562485,0.007227931171655655,4.2277279135305434e-06,0.0002087410684907809,3.568328619003296,10.0,0.0,7000.0,7000.0,7000.0,7000.0,32.766,32.766,1.151,32.766,32.766,2023.37646484375,809.5307006835938,29.658763885498047,,False,
1783648002.4596283,2026-07-09T18:46:42,13484,20260709_184636,,,,,,arming,,,,,,,,,False,0.010807950980961323,0.0081389294937253,0.9974018931388855,-0.2634062170982361,-0.27976199984550476,0.045881737023591995,0.0,2.0,38.0,30.0,0.03,0.002531333127990365,0.00024487372138537467,0.029862698167562485,0.002440304961055517,0.0016093268059194088,0.007259793113917112,0.3297465145587921,0.5457227230072021,-0.07966145873069763,0.029862698167562485,0.007227931171655655,4.2277279135305434e-06,0.0002087410684907809,3.5736072063446045,10.0,0.0,7000.0,7000.0,7000.0,7000.0,32.766,32.766,1.151,32.766,32.766,2023.37646484375,809.5307006835938,29.658763885498047,,False,
1783648002.4697628,2026-07-09T18:46:42,13492,20260709_184636,,,,,,arming,,,,,,,,,False,0.008916113525629044,0.008929405361413956,1.0002168416976929,0.08014548569917679,0.19872279465198517,0.24402163922786713,4.0,0.0,27.0,28.0,0.028,0.002531333127990365,0.00024487372138537467,0.029862698167562485,0.002440304961055517,0.0016093268059194088,0.007259793113917112,0.3297465145587921,0.5457227230072021,-0.07966145873069763,0.029862698167562485,0.007227931171655655,4.2277279135305434e-06,0.0002087410684907809,3.5736072063446045,10.0,0.0,7000.0,7000.0,7000.0,7000.0,32.766,32.766,1.151,32.766,32.766,2023.37646484375,809.5307006835938,29.658763885498047,,False,
1783648002.479977,2026-07-09T18:46:42,13502,20260709_184636,,,,,,arming,,,,,,,,,False,0.009755907580256462,0.00695789186283946,0.9992877244949341,-0.3011111915111542,-0.1715928316116333,-0.20832911133766174,-3.0,5.0,24.0,28.0,0.028,0.0014825332909822464,4.062044172314927e-05,0.02913864143192768,-0.0032725611235946417,0.0011956586968153715,0.0027555711567401886,0.3297465145587921,0.5457227230072021,-0.07966145873069763,0.029862698167562485,0.007227931171655655,4.2277279135305434e-06,0.0002087410684907809,3.5736072063446045,10.0,0.0,7000.0,7000.0,7000.0,7000.0,32.766,32.766,1.151,32.766,32.766,2023.37646484375,809.5307006835938,29.658763885498047,,False,
1783648002.4901445,2026-07-09T18:46:42,13512,20260709_184636,,,,,,arming,,,,,,,,,False,0.011883399449288845,0.00366563000716269,1.0011088848114014,-0.15464888513088226,0.08154920488595963,-0.04073140397667885,2.0,-3.0,38.0,28.0,0.028,0.0014825332909822464,4.062044172314927e-05,0.02913864143192768,-0.0032725611235946417,0.0011956586968153715,0.0027555711567401886,0.3189293444156647,0.559040367603302,-0.07895509153604507,0.029862698167562485,0.007227931171655655,4.2277279135305434e-06,0.0002087410684907809,3.5736072063446045,10.0,0.0,7000.0,7000.0,7000.0,7000.0,32.766,32.766,1.151,32.766,32.766,2023.37646484375,809.5307006835938,29.658763885498047,,False,
1783648002.5003028,2026-07-09T18:46:42,13524,20260709_184636,,,,,,arming,,,,,,,,,False,0.012746203690767288,0.0056074028834700584,0.9998108744621277,0.13481275737285614,-0.3214833736419678,-0.09750296175479889,1.0,-1.0,38.0,28.0,0.028,0.0023294719867408276,-0.0005961669376119971,0.02919990010559559,0.0015293799806386232,-0.0022240520920604467,0.0028842096216976643,0.2874796986579895,0.5241641998291016,-0.08024550974369049,0.029862698167562485,0.007227931171655655,4.2277279135305434e-06,0.0002087410684907809,3.5736072063446045,10.0,0.0,7000.0,7000.0,7000.0,7000.0,32.766,32.766,1.151,32.766,32.766,2023.37646484375,809.5307006835938,29.658763885498047,,False,
1783648002.5104425,2026-07-09T18:46:42,13532,20260709_184636,,,,,,arming,,,,,,,,,False,0.011907189153134823,0.005471935961395502,0.9995118379592896,-0.1132066622376442,0.2696920335292816,0.18784357607364655,-4.0,-3.0,44.0,28.0,0.028,0.0023294719867408276,-0.0005961669376119971,0.02919990010559559,0.0015293799806386232,-0.0022240520920604467,0.0028842096216976643,0.2874796986579895,0.5241641998291016,-0.08024550974369049,0.02923297882080078,0.002872444223612547,4.097172222827794e-06,0.0002035739307757467,3.5736072063446045,10.0,0.0,7000.0,7000.0,7000.0,7000.0,32.766,32.766,1.083,32.766,32.766,2023.4365234375,809.5255126953125,29.665828704833984,,False,
1783648002.5205746,2026-07-09T18:46:42,13544,20260709_184636,,,,,,arming,,,,,,,,,False,0.01014601532369852,0.005636074114590883,1.0014973878860474,-0.21797816455364227,-0.1099899560213089,-0.02056095562875271,0.0,0.0,44.0,28.0,0.028,0.0030214220751076937,0.00027324171969667077,0.028730949386954308,0.005392828024923801,0.0024272154550999403,0.0001543091784697026,0.3080889582633972,0.5998769402503967,-0.08017869293689728,0.02923297882080078,0.002872444223612547,4.097172222827794e-06,0.0002035739307757467,3.5736072063446045,10.0,0.0,7000.0,7000.0,7000.0,7000.0,32.766,32.766,1.083,32.766,32.766,2023.4365234375,809.5255126953125,29.665828704833984,,False,
1783648002.5307121,2026-07-09T18:46:42,13552,20260709_184636,,,,,,arming,,,,,,,,,False,0.010401275008916855,0.005315015558153391,0.9986692070960999,-0.05352047458291054,-0.5630826950073242,-0.2441769540309906,2.0,8.0,23.0,28.0,0.028,0.0030214220751076937,0.00027324171969667077,0.028730949386954308,0.005392828024923801,0.0024272154550999403,0.0001543091784697026,0.3080889582633972,0.5998769402503967,-0.08017869293689728,0.02923297882080078,0.002872444223612547,4.097172222827794e-06,0.0002035739307757467,3.5736072063446045,10.0,0.0,7000.0,7000.0,7000.0,7000.0,32.766,32.766,1.083,32.766,32.766,2023.4365234375,809.5255126953125,29.665828704833984,,False,
1783648002.5408702,2026-07-09T18:46:42,13564,20260709_184636,,,,,,arming,,,,,,,,,False,0.010084833949804306,0.006772173102945089,1.0000040531158447,-0.03982749581336975,0.26804590225219727,-0.23971612751483917,1.0,-5.0,38.0,28.0,0.028,0.002340633887797594,-0.00038903942913748324,0.028758350759744644,0.0018358128145337105,-0.0011611509835347533,0.00026238031568937004,0.31514599919319153,0.5552712678909302,-0.08140517771244049,0.02923297882080078,0.002872444223612547,4.097172222827794e-06,0.0002035739307757467,3.5736072063446045,10.0,0.0,7000.0,7000.0,7000.0,7000.0,32.766,32.766,1.083,32.766,32.766,2023.4365234375,809.5255126953125,29.665828704833984,,False,
1783648002.5510206,2026-07-09T18:46:42,13576,20260709_184636,,,,,,arming,,,,,,,,,False,0.0105891739949584,0.006767072714865208,1.0015112161636353,-0.01843174919486046,0.02093728631734848,-0.5886274576187134,-1.0,4.0,40.0,28.0,0.028,0.002340633887797594,-0.00038903942913748324,0.028758350759744644,0.0018358128145337105,-0.0011611509835347533,0.00026238031568937004,0.31514599919319153,0.5552712678909302,-0.08140517771244049,0.02877270057797432,0.0005260410252958536,4.018244908365887e-06,0.0002017272199736908,3.552492618560791,10.0,0.0,7000.0,7000.0,7000.0,7000.0,32.766,32.766,1.083,32.766,32.766,2023.4365234375,809.5255126953125,29.665828704833984,,False,
1783648002.5611963,2026-07-09T18:46:42,13584,20260709_184636,,,,,,arming,,,,,,,,,False,0.010996853932738304,0.006087468937039375,1.001021385192871,0.09832596033811569,0.7005947828292847,-0.30624592304229736,-2.0,-3.0,35.0,28.0,0.028,0.002105747116729617,0.00026594949304126203,0.02877270057797432,0.000707295723259449,0.0026216916739940643,0.0005461319233290851,0.315472275018692,0.5372300744056702,-0.08080741763114929,0.02877270057797432,0.0005260410252958536,4.018244908365887e-06,0.0002017272199736908,3.552492618560791,10.0,0.0,7000.0,7000.0,7000.0,7000.0,32.766,32.766,1.083,32.766,32.766,2023.4365234375,809.5255126953125,29.665828704833984,,False,
1783648002.571324,2026-07-09T18:46:42,13592,20260709_184636,,,,,,arming,,,,,,,,,False,0.01145873498171568,0.005711752455681562,0.99886554479599,0.04821806773543358,0.09345129877328873,-0.09189876914024353,3.0,-3.0,29.0,30.0,0.03,0.002105747116729617,0.00026594949304126203,0.02877270057797432,0.000707295723259449,0.0026216916739940643,0.0005461319233290851,0.315472275018692,0.5372300744056702,-0.08080741763114929,0.02877270057797432,0.0005260410252958536,4.018244908365887e-06,0.0002017272199736908,3.552492618560791,10.0,0.0,7000.0,7000.0,7000.0,7000.0,32.766,32.766,1.083,32.766,32.766,2023.4365234375,809.5255126953125,29.665828704833984,,False,
1783648002.5814538,2026-07-09T18:46:42,13604,20260709_184636,,,,,,arming,,,,,,,,,False,0.012441803701221943,0.005557159427553415,1.0008742809295654,0.1982964426279068,-0.34655502438545227,1.042304515838623,-2.0,-1.0,25.0,30.0,0.03,0.0029764578212052584,3.507009387249127e-05,0.029321644455194473,0.005346361082047224,0.001409215503372252,0.0032044374383985996,0.2978079915046692,0.5250220894813538,-0.08255928754806519,0.02877270057797432,0.0005260410252958536,4.018244908365887e-06,0.0002017272199736908,3.552492618560791,10.0,0.0,7000.0,7000.0,7000.0,7000.0,32.766,32.766,1.083,32.766,32.766,2023.4365234375,809.5255126953125,29.665828704833984,,False,
1783648002.5915866,2026-07-09T18:46:42,13612,20260709_184636,,,,,,arming,,,,,,,,,False,0.0113864466547966,0.0052254763431847095,1.0011262893676758,-0.12828385829925537,0.28416576981544495,0.1409851610660553,-5.0,3.0,38.0,30.0,0.03,0.0029764578212052584,3.507009387249127e-05,0.029321644455194473,0.005346361082047224,0.001409215503372252,0.0032044374383985996,0.2978079915046692,0.5250220894813538,-0.08255928754806519,0.02877270057797432,0.0005260410252958536,4.018244908365887e-06,0.0002017272199736908,3.552492618560791,10.0,0.0,7000.0,7000.0,7000.0,7000.0,32.766,32.766,1.083,32.766,32.766,2023.4365234375,809.5255126953125,29.665828704833984,,False,
1783648002.6017125,2026-07-09T18:46:42,13625,20260709_184636,,,,,,arming,,,,,,,,,False,0.014853576198220253,0.003613534849137068,0.9989494681358337,0.3771466314792633,-0.18024638295173645,0.3838939964771271,3.0,-3.0,41.0,30.0,0.03,0.002961053280159831,0.0004704753519035876,0.02939840778708458,0.005155278369784355,0.0033729178830981255,0.0034213641192764044,0.2930562198162079,0.5328259468078613,-0.08005968481302261,0.029435662552714348,0.0036281179636716843,3.97699704990373e-06,0.00020132942881900817,3.552492618560791,10.0,0.0,7000.0,7000.0,7000.0,7000.0,32.766,32.766,1.083,32.766,32.766,2023.4365234375,809.5255126953125,29.665828704833984,,False,
1783648002.6119702,2026-07-09T18:46:42,13632,20260709_184636,,,,,,arming,,,,,,,,,False,0.012372085824608803,0.0034187615383416414,1.0016895532608032,-0.4483546018600464,-0.3908998370170593,0.9237644672393799,1.0,0.0,40.0,30.0,0.03,0.002961053280159831,0.0004704753519035876,0.02939840778708458,0.005155278369784355,0.0033729178830981255,0.0034213641192764044,0.2930562198162079,0.5328259468078613,-0.08005968481302261,0.029435662552714348,0.0036281179636716843,3.97699704990373e-06,0.00020132942881900817,3.5472140312194824,10.0,0.0,7000.0,7000.0,7000.0,7000.0,32.766,32.766,32.766,32.766,32.766,2023.43115234375,809.5259399414062,29.671613693237305,,False,
1783648002.622109,2026-07-09T18:46:42,13644,20260709_184636,,,,,,arming,,,,,,,,,False,0.009331293404102325,0.008245645090937614,1.0015006065368652,0.22758187353610992,0.8043268918991089,0.7023935914039612,0.0,7.0,39.0,28.0,0.028,0.0014545019948855042,0.0002472813939675689,0.02889462187886238,-0.0027065854519605637,0.0017526533920317888,0.0009514344856142998,0.33156171441078186,0.5809133648872375,-0.07715959846973419,0.029435662552714348,0.0036281179636716843,3.97699704990373e-06,0.00020132942881900817,3.5472140312194824,10.0,0.0,7000.0,7000.0,7000.0,7000.0,32.766,32.766,32.766,32.766,32.766,2023.43115234375,809.5259399414062,29.671613693237305,,False,
1783648002.63233,2026-07-09T18:46:42,13652,20260709_184636,,,,,,arming,,,,,,,,,False,0.009990393184125423,0.009008913300931454,1.002173662185669,-0.004985170438885689,-0.38505038619041443,0.7881672382354736,4.0,-2.0,27.0,28.0,0.028,0.0014545019948855042,0.0002472813939675689,0.02889462187886238,-0.0027065854519605637,0.0017526533920317888,0.0009514344856142998,0.33156171441078186,0.5809133648872375,-0.07715959846973419,0.029435662552714348,0.0036281179636716843,3.97699704990373e-06,0.00020132942881900817,3.5472140312194824,10.0,0.0,7000.0,7000.0,7000.0,7000.0,32.766,32.766,32.766,32.766,32.766,2023.43115234375,809.5259399414062,29.671613693237305,,False,
1783648002.6424704,2026-07-09T18:46:42,13664,20260709_184636,,,,,,arming,,,,,,,,,False,0.008223447017371655,0.004073251970112324,1.0042600631713867,-0.016339736059308052,-0.22967152297496796,0.6673836708068848,-4.0,-2.0,37.0,28.0,0.028,0.002298229606822133,0.00023256063286680728,0.028922494500875473,0.0017533296486362815,0.0019055684097111225,0.0008528883918188512,0.2973901331424713,0.5629735589027405,-0.0752224549651146,0.029435662552714348,0.0036281179636716843,3.97699704990373e-06,0.00020132942881900817,3.5472140312194824,10.0,0.0,7000.0,7000.0,7000.0,7000.0,32.766,32.766,32.766,32.766,32.766,2023.43115234375,809.5259399414062,29.671613693237305,,False,
1783648002.6526074,2026-07-09T18:46:42,13676,20260709_184636,,,,,,arming,,,,,,,,,False,0.01168122049421072,0.010623992420732975,0.9988563656806946,0.082090362906456,-0.34082189202308655,0.8445727825164795,0.0,4.0,40.0,28.0,0.028,0.002298229606822133,0.00023256063286680728,0.028922494500875473,0.0017533296486362815,0.0019055684097111225,0.0008528883918188512,0.2973901331424713,0.5629735589027405,-0.0752224549651146,0.028954196721315384,0.001143294619396329,4.1630055420682766e-06,0.00020832002337556332,3.552492618560791,10.0,0.0,7000.0,7000.0,7000.0,7000.0,32.766,32.766,32.766,32.766,32.766,2023.43115234375,809.5259399414062,29.671613693237305,,False,
1783648002.662743,2026-07-09T18:46:42,13684,20260709_184636,,,,,,arming,,,,,,,,,False,0.013697286136448383,0.004641999490559101,0.99470454454422,0.13945823907852173,0.3302900791168213,0.8102365732192993,3.0,-5.0,37.0,28.0,0.028,0.0024833788629621267,-0.00039752275915816426,0.028954196721315384,0.002718300325796008,-0.0012572137638926506,0.0011629594955593348,0.31426239013671875,0.5449070334434509,-0.07295070588588715,0.028954196721315384,0.001143294619396329,4.1630055420682766e-06,0.00020832002337556332,3.552492618560791,10.0,0.0,7000.0,7000.0,7000.0,7000.0,32.766,32.766,32.766,32.766,32.766,2023.43115234375,809.5259399414062,29.671613693237305,,False,
1783648002.673109,2026-07-09T18:46:42,13692,20260709_184636,,,,,,arming,,,,,,,,,False,0.00997849740087986,0.0003206149849575013,0.9966017603874207,0.2097034752368927,0.8659985661506653,0.6349520087242126,-1.0,-2.0,31.0,30.0,0.03,0.0024833788629621267,-0.00039752275915816426,0.028954196721315384,0.002718300325796008,-0.0012572137638926506,0.0011629594955593348,0.31426239013671875,0.5449070334434509,-0.07295070588588715,0.028954196721315384,0.001143294619396329,4.1630055420682766e-06,0.00020832002337556332,3.552492618560791,10.0,0.0,7000.0,7000.0,7000.0,7000.0,32.766,32.766,32.766,32.766,32.766,2023.43115234375,809.5259399414062,29.671613693237305,,False,
1783648002.683256,2026-07-09T18:46:42,13704,20260709_184636,,,,,,arming,,,,,,,,,False,0.011858913116157055,0.014152695424854755,1.006575345993042,-0.6776222586631775,-0.2708514630794525,0.3680769205093384,0.0,2.0,25.0,30.0,0.03,0.002488469472154975,-0.0001898903719848022,0.029441919177770615,0.0024965268094092607,-0.00026164494920521975,0.003309574443846941,0.3061027228832245,0.5667291283607483,-0.07420823723077774,0.028954196721315384,0.001143294619396329,4.1630055420682766e-06,0.00020832002337556332,3.552492618560791,10.0,0.0,7000.0,7000.0,7000.0,7000.0,32.766,32.766,32.766,32.766,32.766,2023.43115234375,809.5259399414062,29.671613693237305,,False,
1783648002.6934164,2026-07-09T18:46:42,13719,20260709_184636,,,,,,arming,,,,,,,,,False,0.005954593885689974,0.003249694826081395,1.0085808038711548,0.629008948802948,0.6145543456077576,0.13126197457313538,-1.0,1.0,43.0,30.0,0.03,0.002488469472154975,-0.0001898903719848022,0.029441919177770615,0.0024965268094092607,-0.00026164494920521975,0.003309574443846941,0.3061027228832245,0.5667291283607483,-0.07420823723077774,0.028954196721315384,0.001143294619396329,4.1630055420682766e-06,0.00020832002337556332,3.552492618560791,10.0,0.0,7000.0,7000.0,7000.0,7000.0,32.766,32.766,32.766,32.766,32.766,2023.43115234375,809.5259399414062,29.671613693237305,,False,
1783648002.7035494,2026-07-09T18:46:42,13726,20260709_184636,,,,,,arming,,,,,,,,,False,0.005954593885689974,0.003249694826081395,1.0085808038711548,0.629008948802948,0.6145543456077576,0.13126197457313538,0.0,-3.0,46.0,30.0,0.03,0.002920464612543583,1.5683044694014825e-05,0.029519828036427498,0.005123225040733814,0.000678346841596067,0.004121890291571617,0.323397696018219,0.5594597458839417,-0.07563360035419464,0.029567763209342957,0.004668923560529947,4.071958755957894e-06,0.00020377986948005855,3.5577712059020996,10.0,0.0,7000.0,7000.0,7000.0,7000.0,32.766,32.766,32.766,32.766,32.766,2023.43115234375,809.5259399414062,29.671613693237305,,False,
1783648002.7136745,2026-07-09T18:46:42,13739,20260709_184636,,,,,,arming,,,,,,,,,False,0.004093341529369354,0.0038053402677178383,1.000257968902588,-0.8850446939468384,-0.7344161868095398,-0.05646614357829094,2.0,2.0,47.0,30.0,0.03,0.002920464612543583,1.5683044694014825e-05,0.029519828036427498,0.005123225040733814,0.000678346841596067,0.004121890291571617,0.323397696018219,0.5594597458839417,-0.07563360035419464,0.029567763209342957,0.004668923560529947,4.071958755957894e-06,0.00020377986948005855,3.5577712059020996,10.0,0.0,7000.0,7000.0,7000.0,7000.0,32.766,32.766,32.766,32.766,32.766,2023.37646484375,809.5305786132812,29.681955337524414,,False,
1783648002.723806,2026-07-09T18:46:42,13744,20260709_184636,,,,,,arming,,,,,,,,,False,0.004093341529369354,0.0038053402677178383,1.000257968902588,-0.8850446939468384,-0.7344161868095398,-0.05646614357829094,0.0,0.0,36.0,31.0,0.031,0.0025137378834187984,-0.0004273690574336797,0.03019540198147297,0.0022034223657101393,-0.0008581214351579547,0.007587272673845291,0.31469157338142395,0.5384259819984436,-0.07560713589191437,0.029567763209342957,0.004668923560529947,4.071958755957894e-06,0.00020377986948005855,3.5577712059020996,10.0,0.0,7000.0,7000.0,7000.0,7000.0,32.766,32.766,32.766,32.766,32.766,2023.37646484375,809.5305786132812,29.681955337524414,,False,
1783648002.7342117,2026-07-09T18:46:42,13759,20260709_184636,,,,,,arming,,,,,,,,,False,0.012470860965549946,0.012511651031672955,0.9974239468574524,-0.251139760017395,-0.18103797733783722,-0.0847247764468193,-1.0,-2.0,25.0,31.0,0.031,0.0025137378834187984,-0.0004273690574336797,0.03019540198147297,0.0022034223657101393,-0.0008581214351579547,0.007587272673845291,0.31469157338142395,0.5384259819984436,-0.07560713589191437,0.029567763209342957,0.004668923560529947,4.071958755957894e-06,0.00020377986948005855,3.5577712059020996,10.0,0.0,7000.0,7000.0,7000.0,7000.0,32.766,32.766,32.766,32.766,32.766,2023.37646484375,809.5305786132812,29.681955337524414,,False,
1783648002.744412,2026-07-09T18:46:42,13769,20260709_184636,,,,,,arming,,,,,,,,,False,0.00627707876265049,0.00029379213810898364,1.0034843683242798,-0.44504350423812866,-0.46903195977211,-0.3148338496685028,-6.0,2.0,39.0,31.0,0.031,0.002533253515139222,0.0010933320736512542,0.030348505824804306,0.002443059580400586,0.006811175029724836,0.007422041147947311,0.2627998888492584,0.5526718497276306,-0.07839681953191757,0.029567763209342957,0.004668923560529947,4.071958755957894e-06,0.00020377986948005855,3.5577712059020996,10.0,0.0,7000.0,7000.0,7000.0,7000.0,32.766,32.766,32.766,32.766,32.766,2023.37646484375,809.5305786132812,29.681955337524414,,False,
1783648002.7545557,2026-07-09T18:46:42,13779,20260709_184636,,,,,,arming,,,,,,,,,False,0.01880962960422039,0.002859783126041293,0.9949356317520142,0.6922430396080017,0.4486844837665558,-0.31296008825302124,3.0,-2.0,43.0,31.0,0.031,0.002533253515139222,0.0010933320736512542,0.030348505824804306,0.002443059580400586,0.006811175029724836,0.007422041147947311,0.2627998888492584,0.5526718497276306,-0.07839681953191757,0.030510829761624336,0.0073338644579052925,4.0113482100423425e-06,0.0002019202511291951,3.5630500316619873,10.0,0.0,7000.0,7000.0,7000.0,7000.0,32.766,32.766,32.766,32.766,32.766,2023.37646484375,809.5305786132812,29.681955337524414,,False,
1783648002.764687,2026-07-09T18:46:42,13789,20260709_184636,,,,,,arming,,,,,,,,,False,0.006161648780107498,0.0035383792128413916,0.9948504567146301,-0.3250795304775238,-0.09834696352481842,0.13281002640724182,0.0,7.0,41.0,31.0,0.031,0.0014154355740174651,0.00044646355672739446,0.030510829761624336,-0.0038518996443599463,0.003235368989408016,0.007309585344046354,0.33371874690055847,0.5606558322906494,-0.07961900532245636,0.030510829761624336,0.0073338644579052925,4.0113482100423425e-06,0.0002019202511291951,3.5630500316619873,10.0,0.0,7000.0,7000.0,7000.0,7000.0,32.766,32.766,32.766,32.766,32.766,2023.37646484375,809.5305786132812,29.681955337524414,,False,
1783648002.7748299,2026-07-09T18:46:42,13799,20260709_184636,,,,,,arming,,,,,,,,,False,0.010113184340298176,0.0024323530960828066,1.0001596212387085,0.3254023790359497,0.4736843407154083,0.024617141112685204,5.0,-5.0,26.0,27.0,0.027,0.0014154355740174651,0.00044646355672739446,0.030510829761624336,-0.0038518996443599463,0.003235368989408016,0.007309585344046354,0.33371874690055847,0.5606558322906494,-0.07961900532245636,0.030510829761624336,0.0073338644579052925,4.0113482100423425e-06,0.0002019202511291951,3.5630500316619873,10.0,0.0,7000.0,7000.0,7000.0,7000.0,32.766,32.766,32.766,32.766,32.766,2023.37646484375,809.5305786132812,29.681955337524414,,False,
1783648002.784993,2026-07-09T18:46:42,13809,20260709_184636,,,,,,arming,,,,,,,,,False,0.016894187778234482,0.01240288931876421,1.0016674995422363,0.24019260704517365,0.2800675928592682,0.0028035857249051332,-5.0,1.0,25.0,27.0,0.027,0.0,0.0,0.0,0.0,0.0,0.0,0.0,0.0,0.0,0.030510829761624336,0.0073338644579052925,4.0113482100423425e-06,0.0002019202511291951,3.5630500316619873,10.0,0.0,7000.0,7000.0,7000.0,7000.0,32.766,32.766,32.766,32.766,32.766,2023.37646484375,809.5305786132812,29.681955337524414,,False,
1783648002.7951584,2026-07-09T18:46:42,13819,20260709_184636,,,,,,arming,,,,,,,,,False,0.010005665943026543,0.002651235554367304,1.0044455528259277,0.06324992328882217,0.0035290513187646866,0.00017301957996096462,3.0,-3.0,40.0,27.0,0.027,0.0,0.0,0.0,0.0,0.0,0.0,0.0,0.0,0.0,0.030510829761624336,0.0073338644579052925,4.0113482100423425e-06,0.0002019202511291951,3.5630500316619873,10.0,0.0,7000.0,7000.0,7000.0,7000.0,32.766,32.766,32.766,32.766,32.766,2023.37646484375,809.5305786132812,29.681955337524414,,False,
1783648002.8052752,2026-07-09T18:46:42,13829,20260709_184636,,,,,,arming,,,,,,,,,False,0.009261718951165676,0.00884620938450098,0.9972043037414551,-0.43593350052833557,-0.15622125566005707,-0.26418015360832214,-2.0,2.0,42.0,27.0,0.027,5.2097602747380733e-05,-1.6417605365859345e-05,0.8631834387779236,0.004406689666211605,-0.0003060535527765751,0.0003559939796105027,0.0040891896933317184,-0.001705072121694684,0.0009416419197805226,0.8635571002960205,0.0007218598620966077,0.4252646267414093,0.00012499999138526618,3.5577712059020996,10.0,0.0,7000.0,7000.0,7000.0,7000.0,32.766,32.766,1.12,32.766,32.766,2023.420166015625,809.5269165039062,29.686933517456055,,False,
1783648002.8154018,2026-07-09T18:46:42,13839,20260709_184636,,,,,,arming,,,,,,,,,False,0.01432342641055584,0.008273259736597538,0.9980975389480591,-0.26574912667274475,-0.39751189947128296,-0.23317578434944153,-4.0,2.0,43.0,27.0,0.027,5.2097602747380733e-05,-1.6417605365859345e-05,0.8631834387779236,0.004406689666211605,-0.0003060535527765751,0.0003559939796105027,0.0040891896933317184,-0.001705072121694684,0.0009416419197805226,0.8635571002960205,0.0007218598620966077,0.4252646267414093,0.00012499999138526618,3.5577712059020996,10.0,0.0,7000.0,7000.0,7000.0,7000.0,32.766,32.766,1.12,32.766,32.766,2023.420166015625,809.5269165039062,29.686933517456055,,False,
1783648002.8255265,2026-07-09T18:46:42,13849,20260709_184636,,,,,,arming,,,,,,,,,False,0.01143574621528387,-0.0007951119914650917,1.0072853565216064,0.6672210693359375,0.4527433514595032,-0.5618101954460144,2.0,3.0,39.0,27.0,0.027,7.801649917382747e-05,4.931317380396649e-05,0.02701994776725769,0.004046241287142038,0.0027394406497478485,0.000777325825765729,0.0005881492397747934,0.010623843409121037,-0.0018306265119463205,0.8635571002960205,0.0007218598620966077,0.4252646267414093,0.00012499999138526618,3.5577712059020996,10.0,0.0,7000.0,7000.0,7000.0,7000.0,32.766,32.766,1.12,32.766,32.766,2023.420166015625,809.5269165039062,29.686933517456055,,False,
1783648002.8356512,2026-07-09T18:46:42,13859,20260709_184636,,,,,,arming,,,,,,,,,False,0.010612722486257553,0.010295822285115719,0.9977904558181763,-0.17362545430660248,-0.34680885076522827,-0.028920000419020653,2.0,-2.0,33.0,27.0,0.027,7.801649917382747e-05,4.931317380396649e-05,0.02701994776725769,0.004046241287142038,0.0027394406497478485,0.000777325825765729,0.0005881492397747934,0.010623843409121037,-0.0018306265119463205,0.8635571002960205,0.0007218598620966077,0.4252646267414093,0.00012499999138526618,3.5577712059020996,10.0,0.0,7000.0,7000.0,7000.0,7000.0,32.766,32.766,1.12,32.766,32.766,2023.420166015625,809.5269165039062,29.686933517456055,,False,
1783648002.8457758,2026-07-09T18:46:42,13869,20260709_184636,,,,,,arming,,,,,,,,,False,0.009097244590520859,0.0019459996838122606,0.9994472861289978,-0.7998215556144714,-0.6424989700317383,-0.021101780235767365,0.0,-5.0,40.0,27.0,0.027,0.0005966622848063707,-3.448619463597424e-05,0.027009693905711174,0.015155826695263386,0.0003710370510816574,0.0009368175524286926,-0.07135490328073502,-0.07219666242599487,-0.003913724794983864,0.8635571002960205,0.0007218598620966077,0.4252646267414093,0.00012499999138526618,3.5577712059020996,10.0,0.0,7000.0,7000.0,7000.0,7000.0,32.766,32.766,1.12,32.766,32.766,2023.420166015625,809.5269165039062,29.686933517456055,,False,
1783648002.8559132,2026-07-09T18:46:42,13879,20260709_184636,,,,,,arming,,,,,,,,,False,0.010842825286090374,0.003983326721936464,1.0029290914535522,0.11203230172395706,0.7165579795837402,-0.023949526250362396,-4.0,2.0,41.0,27.0,0.027,0.0005966622848063707,-3.448619463597424e-05,0.027009693905711174,0.015155826695263386,0.0003710370510816574,0.0009368175524286926,-0.07135490328073502,-0.07219666242599487,-0.003913724794983864,0.02710859477519989,0.00140788359567523,6.623001809202833e-06,0.00017499907698947936,3.5630500316619873,10.0,0.0,7000.0,7000.0,7000.0,7000.0,32.766,32.766,1.12,32.766,32.766,2023.420166015625,809.5269165039062,29.686933517456055,,False,
1783648002.8660693,2026-07-09T18:46:42,13892,20260709_184636,,,,,,arming,,,,,,,,,False,0.015302055515348911,0.009431437589228153,1.0033754110336304,-0.21654444932937622,-0.09370554983615875,-0.351622998714447,-2.0,-2.0,25.0,29.0,0.029,0.000627597444690764,-0.0003476858837530017,0.02710859477519989,0.012572012841701508,-0.00442038057371974,0.001381868845783174,0.12843196094036102,-0.09659891575574875,-0.0017039875965565443,0.02710859477519989,0.00140788359567523,6.623001809202833e-06,0.00017499907698947936,3.5630500316619873,10.0,0.0,7000.0,7000.0,7000.0,7000.0,32.766,32.766,1.12,32.766,32.766,2023.420166015625,809.5269165039062,29.686933517456055,,False,
1783648002.8761995,2026-07-09T18:46:42,13899,20260709_184636,,,,,,arming,,,,,,,,,False,0.010100924409925938,0.008673867210745811,1.0097596645355225,0.28349563479423523,0.4880369305610657,-0.2290264070034027,-2.0,-2.0,25.0,29.0,0.029,0.000627597444690764,-0.0003476858837530017,0.02710859477519989,0.012572012841701508,-0.00442038057371974,0.001381868845783174,0.12843196094036102,-0.09659891575574875,-0.0017039875965565443,0.02710859477519989,0.00140788359567523,6.623001809202833e-06,0.00017499907698947936,3.5630500316619873,10.0,0.0,7000.0,7000.0,7000.0,7000.0,32.766,32.766,1.12,32.766,32.766,2023.420166015625,809.5269165039062,29.686933517456055,,False,
1783648002.8863275,2026-07-09T18:46:42,13912,20260709_184636,,,,,,arming,,,,,,,,,False,0.006550496444106102,0.009493052959442139,0.9940189719200134,-0.7474948167800903,-0.8836609721183777,-0.1949504315853119,-3.0,-5.0,36.0,29.0,0.029,0.0004640752449631691,-0.0003990330151282251,0.028153767809271812,0.008517500944435596,-0.0037672186736017466,0.002948596142232418,0.21562638878822327,0.13873028755187988,-0.0008845076663419604,0.02710859477519989,0.00140788359567523,6.623001809202833e-06,0.00017499907698947936,3.5630500316619873,10.0,0.0,7000.0,7000.0,7000.0,7000.0,32.766,32.766,1.12,32.766,32.766,2023.420166015625,809.5269165039062,29.686933517456055,,False,
1783648002.8964562,2026-07-09T18:46:42,13919,20260709_184636,,,,,,arming,,,,,,,,,False,0.00807288195937872,0.0043319398537278175,0.9999127984046936,0.19223499298095703,0.34764766693115234,-0.38541993498802185,-3.0,-5.0,36.0,29.0,0.029,0.0004640752449631691,-0.0003990330151282251,0.028153767809271812,0.008517500944435596,-0.0037672186736017466,0.002948596142232418,0.21562638878822327,0.13873028755187988,-0.0008845076663419604,0.02710859477519989,0.00140788359567523,6.623001809202833e-06,0.00017499907698947936,3.5630500316619873,10.0,0.0,7000.0,7000.0,7000.0,7000.0,32.766,32.766,1.12,32.766,32.766,2023.420166015625,809.5269165039062,29.686933517456055,,False,
1783648002.90659,2026-07-09T18:46:42,13932,20260709_184636,,,,,,arming,,,,,,,,,False,0.008884520269930363,0.01032292190939188,1.0066031217575073,-0.36264321208000183,-0.34173232316970825,-0.12559522688388824,-1.0,7.0,40.0,29.0,0.029,0.0012554581044241786,-5.056658119428903e-05,0.028214819729328156,0.018257703632116318,0.0022735907696187496,0.0033269079867750406,0.07233268022537231,-0.0679032951593399,-8.872531179804355e-05,0.028296401724219322,0.0031746504828333855,3.936887878808193e-06,0.0002180262963520363,3.5577712059020996,10.0,0.0,7000.0,7000.0,7000.0,7000.0,32.766,32.766,32.766,32.766,32.766,2023.34912109375,809.533447265625,29.697111129760742,,False,
1783648002.916716,2026-07-09T18:46:42,13942,20260709_184636,,,,,,arming,,,,,,,,,False,0.012852218933403492,0.004026561509817839,1.0057976245880127,-0.08328460156917572,-0.032585300505161285,-0.13648034632205963,-1.0,7.0,40.0,29.0,0.029,0.00035238705459050834,0.00014610736980102956,0.02859940193593502,0.004992120899260044,0.004900569561868906,0.004427739884704351,0.07233268022537231,-0.0679032951593399,-8.872531179804355e-05,0.028296401724219322,0.0031746504828333855,3.936887878808193e-06,0.0002180262963520363,3.5577712059020996,10.0,0.0,7000.0,7000.0,7000.0,7000.0,32.766,32.766,32.766,32.766,32.766,2023.34912109375,809.533447265625,29.697111129760742,,False,
1783648002.926881,2026-07-09T18:46:42,13952,20260709_184636,,,,,,arming,,,,,,,,,False,0.006657687947154045,0.006388330366462469,1.0008386373519897,-0.13318388164043427,-0.3494170606136322,-0.13396558165550232,-2.0,-7.0,31.0,29.0,0.029,0.00035238705459050834,0.00014610736980102956,0.02859940193593502,0.004992120899260044,0.004900569561868906,0.004427739884704351,0.02686213329434395,0.33568286895751953,-0.0009155787993222475,0.028296401724219322,0.0031746504828333855,3.936887878808193e-06,0.0002180262963520363,3.5577712059020996,10.0,0.0,7000.0,7000.0,7000.0,7000.0,32.766,32.766,32.766,32.766,32.766,2023.34912109375,809.533447265625,29.697111129760742,,False,
1783648002.9370408,2026-07-09T18:46:42,13962,20260709_184636,,,,,,arming,,,,,,,,,False,0.00866324920207262,0.008620405569672585,0.9972965717315674,-0.6410323977470398,-0.39891085028648376,-0.5186030268669128,-2.0,-7.0,31.0,29.0,0.029,0.0016325744800269604,-3.6620167520595714e-05,0.028697047382593155,0.01864118129014969,0.002285880269482732,0.004411773756146431,0.02686213329434395,0.33568286895751953,-0.0009155787993222475,0.028296401724219322,0.0031746504828333855,3.936887878808193e-06,0.0002180262963520363,3.5577712059020996,10.0,0.0,7000.0,7000.0,7000.0,7000.0,32.766,32.766,32.766,32.766,32.766,2023.34912109375,809.533447265625,29.697111129760742,,False,
1783648002.9471757,2026-07-09T18:46:42,13972,20260709_184636,,,,,,arming,,,,,,,,,False,0.006732677109539509,0.004563378635793924,0.9960165619850159,0.2348422408103943,0.27167412638664246,-0.40679386258125305,3.0,2.0,38.0,29.0,0.029,0.0016325744800269604,-3.6620167520595714e-05,0.028697047382593155,0.01864118129014969,0.002285880269482732,0.004411773756146431,0.29593756794929504,0.16683520376682281,0.0005562430596910417,0.028296401724219322,0.0031746504828333855,3.936887878808193e-06,0.0002180262963520363,3.5577712059020996,10.0,0.0,7000.0,7000.0,7000.0,7000.0,32.766,32.766,32.766,32.766,32.766,2023.34912109375,809.533447265625,29.697111129760742,,False,
1783648002.9572997,2026-07-09T18:46:42,13982,20260709_184636,,,,,,arming,,,,,,,,,False,0.010786683298647404,0.006891082040965557,1.000976800918579,0.35717594623565674,-0.007526852656155825,-0.35983556509017944,3.0,2.0,38.0,29.0,0.029,0.0014057628577575088,-0.0006547861266881227,0.028795741498470306,0.014167913235723972,-0.004259014036506414,0.003956478554755449,0.29593756794929504,0.16683520376682281,0.0005562430596910417,0.028795741498470306,0.0039375340566039085,3.5905311506212456e-06,0.0002467506274115294,3.5630500316619873,10.0,0.0,7000.0,7000.0,7000.0,7000.0,32.766,32.766,32.766,32.766,32.766,2023.34912109375,809.533447265625,29.697111129760742,,False,
1783648002.9674277,2026-07-09T18:46:42,13992,20260709_184636,,,,,,arming,,,,,,,,,False,0.011320995166897774,0.004623612388968468,1.002877950668335,-0.06408079713582993,-0.5034040212631226,-0.19575531780719757,-1.0,0.0,27.0,30.0,0.03,0.0014057628577575088,-0.0006547861266881227,0.028795741498470306,0.014167913235723972,-0.004259014036506414,0.003956478554755449,0.22222185134887695,0.20736999809741974,-0.0010527923004701734,0.028795741498470306,0.0039375340566039085,3.5905311506212456e-06,0.0002467506274115294,3.5630500316619873,10.0,0.0,7000.0,7000.0,7000.0,7000.0,32.766,32.766,32.766,32.766,32.766,2023.34912109375,809.533447265625,29.697111129760742,,False,
1783648002.9775527,2026-07-09T18:46:42,14002,20260709_184636,,,,,,arming,,,,,,,,,False,0.009212849661707878,0.0016924666706472635,1.0041850805282593,0.18922433257102966,0.42246246337890625,0.29484543204307556,-1.0,0.0,27.0,30.0,0.03,0.0013817346189171076,-0.0001878815091913566,0.02935483306646347,0.01253942959010601,0.001066204160451889,0.006076571065932512,0.22222185134887695,0.20736999809741974,-0.0010527923004701734,0.028795741498470306,0.0039375340566039085,3.5905311506212456e-06,0.0002467506274115294,3.5630500316619873,10.0,0.0,7000.0,7000.0,7000.0,7000.0,32.766,32.766,32.766,32.766,32.766,2023.34912109375,809.533447265625,29.697111129760742,,False,
1783648002.9876797,2026-07-09T18:46:42,14012,20260709_184636,,,,,,arming,,,,,,,,,False,0.008352499455213547,0.010178979486227036,1.0049022436141968,-0.3778162896633148,-0.3320746123790741,-0.07280934602022171,-3.0,5.0,38.0,30.0,0.03,0.0013817346189171076,-0.0001878815091913566,0.02935483306646347,0.01253942959010601,0.001066204160451889,0.006076571065932512,0.16257862746715546,0.24767473340034485,-0.0031442956533282995,0.028795741498470306,0.0039375340566039085,3.5905311506212456e-06,0.0002467506274115294,3.5630500316619873,10.0,0.0,7000.0,7000.0,7000.0,7000.0,32.766,32.766,32.766,32.766,32.766,2023.34912109375,809.533447265625,29.697111129760742,,False,
1783648002.99781,2026-07-09T18:46:42,14022,20260709_184636,,,,,,arming,,,,,,,,,False,0.01165769249200821,0.004033209756016731,0.9933579564094543,0.28390640020370483,0.46751609444618225,0.09164894372224808,-3.0,5.0,38.0,30.0,0.03,0.0018595947185531259,0.0002822486567310989,0.029511764645576477,0.015663735568523407,0.0058781858533620834,0.0067413547076284885,0.16257862746715546,0.24767473340034485,-0.0031442956533282995,0.028795741498470306,0.0039375340566039085,3.5905311506212456e-06,0.0002467506274115294,3.5630500316619873,10.0,0.0,7000.0,7000.0,7000.0,7000.0,32.766,32.766,32.766,32.766,32.766,2023.34912109375,809.533447265625,29.697111129760742,,False,
1783648003.0079637,2026-07-09T18:46:43,14032,20260709_184636,,,,,,arming,,,,,,,,,False,0.014639218337833881,0.00013442734780255705,0.9927468299865723,1.836633324623108,1.9080853462219238,0.160155788064003,0.0,0.0,38.0,30.0,0.03,0.0018595947185531259,0.0002822486567310989,0.029511764645576477,0.015663735568523407,0.0058781858533620834,0.0067413547076284885,0.06775306165218353,0.18489930033683777,-0.0022420892491936684,0.02957826852798462,0.006500715855509043,3.81740574084688e-06,0.0002548670454416424,3.5630500316619873,10.0,0.0,7000.0,7000.0,7000.0,7000.0,32.766,32.766,1.098,32.766,32.766,2023.420166015625,809.5266723632812,29.704452514648438,,False,
1783648003.0181203,2026-07-09T18:46:43,14042,20260709_184636,,,,,,arming,,,,,,,,,False,0.00639100419357419,0.013629916124045849,0.9984452724456787,-1.1566060781478882,-0.8363619446754456,0.16591273248195648,1.0,0.0,33.0,28.0,0.028,0.001981217646971345,5.440970562631264e-05,0.029014473780989647,0.015456408262252808,0.00310044689103961,0.002916095545515418,0.06775306165218353,0.18489930033683777,-0.0022420892491936684,0.02957826852798462,0.006500715855509043,3.81740574084688e-06,0.0002548670454416424,3.5630500316619873,10.0,0.0,7000.0,7000.0,7000.0,7000.0,32.766,32.766,1.098,32.766,32.766,2023.420166015625,809.5266723632812,29.704452514648438,,False,
1783648003.0282712,2026-07-09T18:46:43,14052,20260709_184636,,,,,,arming,,,,,,,,,False,0.014224885031580925,0.002527745207771659,0.999418318271637,-0.2343020737171173,-0.151836097240448,0.5338625311851501,3.0,4.0,34.0,28.0,0.028,0.001981217646971345,5.440970562631264e-05,0.029014473780989647,0.015456408262252808,0.00310044689103961,0.002916095545515418,0.30505868792533875,0.45550358295440674,-0.0031570876017212868,0.02957826852798462,0.006500715855509043,3.81740574084688e-06,0.0002548670454416424,3.5630500316619873,10.0,0.0,7000.0,7000.0,7000.0,7000.0,32.766,32.766,1.098,32.766,32.766,2023.420166015625,809.5266723632812,29.704452514648438,,False,
1783648003.0383983,2026-07-09T18:46:43,14062,20260709_184636,,,,,,arming,,,,,,,,,False,0.020365504547953606,-0.00226575112901628,1.0074081420898438,1.9011595249176025,2.3006701469421387,0.4000163972377777,-3.0,-4.0,38.0,28.0,0.028,0.0019120144424960017,8.533993241144344e-05,0.029096394777297974,0.013905463740229607,0.003836271120235324,0.0029760522302240133,0.30505868792533875,0.45550358295440674,-0.0031570876017212868,0.02957826852798462,0.006500715855509043,3.81740574084688e-06,0.0002548670454416424,3.5630500316619873,10.0,0.0,7000.0,7000.0,7000.0,7000.0,32.766,32.766,1.098,32.766,32.766,2023.420166015625,809.5266723632812,29.704452514648438,,False,
1783648003.0485277,2026-07-09T18:46:43,14072,20260709_184636,,,,,,arming,,,,,,,,,False,-0.00044725750922225416,0.01541803777217865,0.999005913734436,-0.9347591400146484,-0.8334062695503235,0.3540896475315094,0.0,8.0,36.0,28.0,0.028,0.0019120144424960017,8.533993241144344e-05,0.029096394777297974,0.013905463740229607,0.003836271120235324,0.0029760522302240133,0.1394721120595932,0.2782476842403412,-0.004346328321844339,0.02957826852798462,0.006500715855509043,3.81740574084688e-06,0.0002548670454416424,3.5630500316619873,10.0,0.0,7000.0,7000.0,7000.0,7000.0,32.766,32.766,1.098,32.766,32.766,2023.420166015625,809.5266723632812,29.704452514648438,,False,
1783648003.058651,2026-07-09T18:46:43,14082,20260709_184636,,,,,,arming,,,,,,,,,False,0.01956445351243019,-0.0025098719634115696,1.0028951168060303,-0.2571503520011902,-0.41967570781707764,-0.14327499270439148,2.0,-8.0,46.0,28.0,0.028,0.001831144792959094,-0.00042693401337601244,0.02922641858458519,0.012194443494081497,-0.00046541495248675346,0.0034402322489768267,0.1394721120595932,0.2782476842403412,-0.004346328321844339,0.02922641858458519,0.003374332096427679,4.317970706324559e-06,0.00025588905555196106,3.5630500316619873,10.0,0.0,7000.0,7000.0,7000.0,7000.0,32.766,32.766,1.098,32.766,32.766,2023.420166015625,809.5266723632812,29.704452514648438,,False,
1783648003.068782,2026-07-09T18:46:43,14092,20260709_184636,,,,,,arming,,,,,,,,,False,0.020356765016913414,0.001702796551398933,1.012119174003601,1.0114648342132568,1.2525404691696167,0.009087750688195229,0.0,0.0,26.0,29.0,0.029,0.001831144792959094,-0.00042693401337601244,0.02922641858458519,0.012194443494081497,-0.00046541495248675346,0.0034402322489768267,0.2400725930929184,0.3184305429458618,-0.002448832616209984,0.02922641858458519,0.003374332096427679,4.317970706324559e-06,0.00025588905555196106,3.5630500316619873,10.0,0.0,7000.0,7000.0,7000.0,7000.0,32.766,32.766,1.098,32.766,32.766,2023.420166015625,809.5266723632812,29.704452514648438,,False,
1783648003.079013,2026-07-09T18:46:43,14104,20260709_184636,,,,,,arming,,,,,,,,,False,0.00782441720366478,0.008959577418863773,1.0008782148361206,0.2647445797920227,0.5157440900802612,0.12283419817686081,0.0,4.0,26.0,29.0,0.029,0.0007651402847841382,-0.00044012165744788945,0.029193537309765816,0.003835859941318631,-0.0007393517880700529,0.003895067609846592,0.114377461373806,0.3578316867351532,-0.0018829357577487826,0.02922641858458519,0.003374332096427679,4.317970706324559e-06,0.00025588905555196106,3.5630500316619873,10.0,0.0,7000.0,7000.0,7000.0,7000.0,32.766,32.766,1.098,32.766,32.766,2023.420166015625,809.5266723632812,29.704452514648438,,False,
1783648003.0891404,2026-07-09T18:46:43,14112,20260709_184636,,,,,,arming,,,,,,,,,False,0.009081575088202953,0.011640011332929134,0.9970815181732178,-0.912237286567688,-1.325262188911438,0.5621134638786316,-3.0,-4.0,40.0,29.0,0.029,0.0007651402847841382,-0.00044012165744788945,0.029193537309765816,0.003835859941318631,-0.0007393517880700529,0.003895067609846592,0.114377461373806,0.3578316867351532,-0.0018829357577487826,0.02922641858458519,0.003374332096427679,4.317970706324559e-06,0.00025588905555196106,3.5630500316619873,10.0,0.0,7000.0,7000.0,7000.0,7000.0,32.766,32.766,1.098,32.766,32.766,2023.420166015625,809.5266723632812,29.704452514648438,,False,
1783648003.099269,2026-07-09T18:46:43,14124,20260709_184636,,,,,,arming,,,,,,,,,False,0.02051509916782379,-0.00018472624651622027,0.9869232773780823,0.8766576647758484,1.570068359375,0.24716223776340485,0.0,0.0,40.0,29.0,0.029,0.0019963074009865522,0.0005115124513395131,0.029281970113515854,0.012454070150852203,0.007413739338517189,0.004550551995635033,0.2487396001815796,0.5570923686027527,-0.004476396832615137,0.02922641858458519,0.003374332096427679,4.317970706324559e-06,0.00025588905555196106,3.5630500316619873,10.0,0.0,7000.0,7000.0,7000.0,7000.0,32.766,32.766,1.098,32.766,32.766,2023.420166015625,809.5266723632812,29.704452514648438,,False,
1783648003.1093926,2026-07-09T18:46:43,14132,20260709_184636,,,,,,arming,,,,,,,,,False,0.0065642306581139565,0.0018492970848456025,1.010693073272705,-0.12881767749786377,0.042353834956884384,-0.23544202744960785,3.0,4.0,34.0,29.0,0.029,0.0019963074009865522,0.0005115124513395131,0.029281970113515854,0.012454070150852203,0.007413739338517189,0.004550551995635033,0.2487396001815796,0.5570923686027527,-0.004476396832615137,0.029350128024816513,0.004307602532207966,4.343612545198994e-06,0.00023438490461558104,3.5577712059020996,10.0,0.0,7000.0,7000.0,7000.0,7000.0,32.766,32.766,32.766,32.766,32.766,2023.4365234375,809.5252685546875,29.711315155029297,,False,
1783648003.1195152,2026-07-09T18:46:43,14144,20260709_184636,,,,,,arming,,,,,,,,,False,0.019161205738782883,0.0026090655010193586,1.0116771459579468,0.08043394237756729,-0.09868299961090088,0.07096754014492035,-1.0,3.0,26.0,27.0,0.027,-0.00023897760547697544,-0.00014755500887986273,0.02837521955370903,-0.004709015600383282,0.0019528749398887157,-0.0008549739723093808,0.291155606508255,0.5139557123184204,-0.00573743274435401,0.029350128024816513,0.004307602532207966,4.343612545198994e-06,0.00023438490461558104,3.5577712059020996,10.0,0.0,7000.0,7000.0,7000.0,7000.0,32.766,32.766,32.766,32.766,32.766,2023.4365234375,809.5252685546875,29.711315155029297,,False,
1783648003.129645,2026-07-09T18:46:43,14152,20260709_184636,,,,,,arming,,,,,,,,,False,0.012836485169827938,0.0084695378318429,0.998089075088501,0.2516095042228699,-0.12310150265693665,0.3727727234363556,2.0,-4.0,34.0,27.0,0.027,-0.00023897760547697544,-0.00014755500887986273,0.02837521955370903,-0.004709015600383282,0.0019528749398887157,-0.0008549739723093808,0.291155606508255,0.5139557123184204,-0.00573743274435401,0.029350128024816513,0.004307602532207966,4.343612545198994e-06,0.00023438490461558104,3.5577712059020996,10.0,0.0,7000.0,7000.0,7000.0,7000.0,32.766,32.766,32.766,32.766,32.766,2023.4365234375,809.5252685546875,29.711315155029297,,False,
1783648003.1398003,2026-07-09T18:46:43,14164,20260709_184636,,,,,,arming,,,,,,,,,False,0.004640922416001558,0.006912018172442913,0.988990306854248,0.7606377005577087,0.7080159783363342,0.37132731080055237,0.0,0.0,38.0,27.0,0.027,0.001049753394909203,-0.0007914745947346091,0.028381137177348137,0.005157358478754759,-0.002260629553347826,-0.00017693110567051917,0.2926546335220337,0.5145114064216614,-0.006502471398562193,0.029350128024816513,0.004307602532207966,4.343612545198994e-06,0.00023438490461558104,3.5577712059020996,10.0,0.0,7000.0,7000.0,7000.0,7000.0,32.766,32.766,32.766,32.766,32.766,2023.4365234375,809.5252685546875,29.711315155029297,,False,
1783648003.1500862,2026-07-09T18:46:43,14176,20260709_184636,,,,,,arming,,,,,,,,,False,0.0098433718085289,0.008629155345261097,1.0047051906585693,-0.29861658811569214,-0.40002870559692383,0.0781792476773262,-3.0,-3.0,43.0,27.0,0.027,0.001049753394909203,-0.0007914745947346091,0.028381137177348137,0.005157358478754759,-0.002260629553347826,-0.00017693110567051917,0.2926546335220337,0.5145114064216614,-0.006502471398562193,0.028388570994138718,-0.0003033076645806432,4.512492978392402e-06,0.00022726005408912897,3.5630500316619873,10.0,0.0,7000.0,7000.0,7000.0,7000.0,32.766,32.766,32.766,32.766,32.766,2023.4365234375,809.5252685546875,29.711315155029297,,False,
1783648003.1602435,2026-07-09T18:46:43,14184,20260709_184636,,,,,,arming,,,,,,,,,False,0.0245461817830801,-0.005285929422825575,1.0084980726242065,1.056660532951355,1.1825923919677734,0.44493159651756287,3.0,1.0,44.0,27.0,0.027,0.0015752812614664435,-0.000760219874791801,0.028388570994138718,0.007970966398715973,-0.001786096254363656,-0.00024644104996696115,0.2873513996601105,0.4731961786746979,-0.006042275112122297,0.028388570994138718,-0.0003033076645806432,4.512492978392402e-06,0.00022726005408912897,3.5630500316619873,10.0,0.0,7000.0,7000.0,7000.0,7000.0,32.766,32.766,32.766,32.766,32.766,2023.4365234375,809.5252685546875,29.711315155029297,,False,
1783648003.170402,2026-07-09T18:46:43,14192,20260709_184636,,,,,,arming,,,,,,,,,False,0.00549375731498003,0.008718576282262802,1.0032905340194702,-0.4092422425746918,-0.07401985675096512,0.373277872800827,-4.0,6.0,22.0,28.0,0.028,0.0015752812614664435,-0.000760219874791801,0.028388570994138718,0.007970966398715973,-0.001786096254363656,-0.00024644104996696115,0.2873513996601105,0.4731961786746979,-0.006042275112122297,0.028388570994138718,-0.0003033076645806432,4.512492978392402e-06,0.00022726005408912897,3.5630500316619873,10.0,0.0,7000.0,7000.0,7000.0,7000.0,32.766,32.766,32.766,32.766,32.766,2023.4365234375,809.5252685546875,29.711315155029297,,False,
1783648003.1805632,2026-07-09T18:46:43,14204,20260709_184636,,,,,,arming,,,,,,,,,False,0.017329247668385506,0.003929680213332176,1.002861738204956,-0.5838972330093384,-0.8767692446708679,0.22590146958827972,5.0,-4.0,26.0,28.0,0.028,0.0008885505958460271,-0.0010419077007099986,0.02823207713663578,0.0034994843881577253,-0.003733752528205514,-0.001110172364860773,0.1635390967130661,0.5548862218856812,-0.0031572815496474504,0.028388570994138718,-0.0003033076645806432,4.512492978392402e-06,0.00022726005408912897,3.5630500316619873,10.0,0.0,7000.0,7000.0,7000.0,7000.0,32.766,32.766,32.766,32.766,32.766,2023.4365234375,809.5252685546875,29.711315155029297,,False,
1783648003.1907341,2026-07-09T18:46:43,14212,20260709_184636,,,,,,arming,,,,,,,,,False,0.010394074954092503,0.003452013712376356,1.007671594619751,1.3633439540863037,1.4778250455856323,-0.08387055993080139,-5.0,0.0,37.0,28.0,0.028,0.0008885505958460271,-0.0010419077007099986,0.02823207713663578,0.0034994843881577253,-0.003733752528205514,-0.001110172364860773,0.1635390967130661,0.5548862218856812,-0.0031572815496474504,0.028388570994138718,-0.0003033076645806432,4.512492978392402e-06,0.00022726005408912897,3.5630500316619873,10.0,0.0,7000.0,7000.0,7000.0,7000.0,32.766,32.766,32.766,32.766,32.766,2023.4365234375,809.5252685546875,29.711315155029297,,False,
1783648003.201044,2026-07-09T18:46:43,14224,20260709_184636,,,,,,arming,,,,,,,,,False,0.002415787661448121,0.008807044476270676,0.9929798245429993,-0.20007559657096863,-0.6482691168785095,0.13440877199172974,4.0,0.0,38.0,28.0,0.028,0.0008745453669689596,-0.0007516702171415091,0.028233753517270088,0.003521617501974106,-0.0018413318321108818,-0.00023218350543174893,0.29195091128349304,0.5581555962562561,-0.004560224711894989,0.028388570994138718,-0.0003033076645806432,4.512492978392402e-06,0.00022726005408912897,3.5630500316619873,10.0,0.0,7000.0,7000.0,7000.0,7000.0,32.766,32.766,32.766,32.766,32.766,2023.4365234375,809.5252685546875,29.711315155029297,,False,
1783648003.2112615,2026-07-09T18:46:43,14232,20260709_184636,,,,,,arming,,,,,,,,,False,0.01168573834002018,0.005986336153000593,0.9923184514045715,0.06527584791183472,0.46581974625587463,0.03672372177243233,0.0,0.0,34.0,28.0,0.028,0.0008745453669689596,-0.0007516702171415091,0.028233753517270088,0.003521617501974106,-0.0018413318321108818,-0.00023218350543174893,0.29195091128349304,0.5581555962562561,-0.004560224711894989,0.028230834752321243,-0.00037289148895069957,4.299037300370401e-06,0.00021172984270378947,3.5577712059020996,10.0,0.0,7000.0,7000.0,7000.0,7000.0,32.766,32.766,1.102,32.766,32.766,2023.4476318359375,809.5245971679688,29.72303009033203,,False,
1783648003.2214477,2026-07-09T18:46:43,14244,20260709_184636,,,,,,arming,,,,,,,,,False,0.015185370109975338,-0.0006128244567662477,0.998879611492157,0.274671345949173,0.5910153985023499,-0.09195884317159653,1.0,0.0,27.0,29.0,0.029,0.0008888003649190068,-0.0010798502480611205,0.028555896133184433,0.00282053230330348,-0.003260514000430703,0.0012362819397822022,0.2817440629005432,0.5725443363189697,-0.005546851549297571,0.028230834752321243,-0.00037289148895069957,4.299037300370401e-06,0.00021172984270378947,3.5577712059020996,10.0,0.0,7000.0,7000.0,7000.0,7000.0,32.766,32.766,1.102,32.766,32.766,2023.4476318359375,809.5245971679688,29.72303009033203,,False,
1783648003.2316086,2026-07-09T18:46:43,14252,20260709_184636,,,,,,arming,,,,,,,,,False,0.013419452123343945,0.003993234597146511,1.0047962665557861,-0.4046724736690521,-0.491200715303421,-0.11888038367033005,-1.0,0.0,36.0,29.0,0.029,0.0008888003649190068,-0.0010798502480611205,0.028555896133184433,0.00282053230330348,-0.003260514000430703,0.0012362819397822022,0.2817440629005432,0.5725443363189697,-0.005546851549297571,0.028230834752321243,-0.00037289148895069957,4.299037300370401e-06,0.00021172984270378947,3.5577712059020996,10.0,0.0,7000.0,7000.0,7000.0,7000.0,32.766,32.766,1.102,32.766,32.766,2023.4476318359375,809.5245971679688,29.72303009033203,,False,
1783648003.241767,2026-07-09T18:46:43,14264,20260709_184636,,,,,,arming,,,,,,,,,False,0.013806347735226154,0.00570607790723443,1.0027985572814941,0.4028211832046509,0.29524266719818115,-0.3393152058124542,0.0,0.0,43.0,29.0,0.029,0.0008998857229016721,-0.000759872084017843,0.028578586876392365,0.0024854966904968023,-0.001024424098432064,0.001197082456201315,0.27938592433929443,0.5708397626876831,-0.006052141077816486,0.028230834752321243,-0.00037289148895069957,4.299037300370401e-06,0.00021172984270378947,3.5577712059020996,10.0,0.0,7000.0,7000.0,7000.0,7000.0,32.766,32.766,1.102,32.766,32.766,2023.4476318359375,809.5245971679688,29.72303009033203,,False,
1783648003.2519646,2026-07-09T18:46:43,14276,20260709_184636,,,,,,arming,,,,,,,,,False,0.007280857302248478,0.0009677234920673072,0.9912127256393433,0.6774239540100098,1.1395890712738037,-0.0748634859919548,0.0,0.0,40.0,29.0,0.029,0.0008998857229016721,-0.000759872084017843,0.028578586876392365,0.0024854966904968023,-0.001024424098432064,0.001197082456201315,0.27938592433929443,0.5708397626876831,-0.006052141077816486,0.028609735891222954,0.001520327990874648,4.364051164884586e-06,0.0002120358549291268,3.5630500316619873,10.0,0.0,7000.0,7000.0,7000.0,7000.0,32.766,32.766,1.102,32.766,32.766,2023.4476318359375,809.5245971679688,29.72303009033203,,False,
