pc_time_s,pc_time_iso,cf_time_ms,session_id,motif_id,motif_type,motif_phase,rep_index,motif_param_json,flight_phase,cmd_vx_m_s,cmd_vy_m_s,cmd_yaw_rate_deg_s,cmd_height_m,cmd_vx_raw_m_s,cmd_vy_raw_m_s,cmd_yaw_rate_raw_deg_s,cmd_height_raw_m,safety_override_active,acc_x_g,acc_y_g,acc_z_g,gyro_x_dps,gyro_y_dps,gyro_z_dps,flow_delta_x_px,flow_delta_y_px,flow_squal,zrange_mm,zrange_m,x_m,y_m,z_m,vx_m_s,vy_m_s,vz_m_s,roll_deg,pitch_deg,yaw_deg,kalman_state_z_m,kalman_state_pz,kalman_var_z,kalman_var_pz,battery_v,battery_level_pct,pm_state,motor_m1,motor_m2,motor_m3,motor_m4,range_front_m,range_back_m,range_left_m,range_right_m,range_up_m,baro_asl_m,baro_pressure_hpa,baro_temp_c,safety_flag,should_land,event
1783647869.772251,2026-07-09T18:44:29,,20260709_184425,,,,,,ground_idle,,,,,,,,,False,,,,,,,,,,,,,,,,,,,,,,,,,,,,,,,,,,,,,,,,,False,
1783647869.7889423,2026-07-09T18:44:29,,20260709_184425,,,,,,ground_idle,,,,,,,,,False,,,,,,,,,,,,,,,,,,,,,,,,,,,,,,,,,,,,,,,,,False,
1783647869.7991097,2026-07-09T18:44:29,,20260709_184425,,,,,,ground_idle,,,,,,,,,False,,,,,,,,,,,,,,,,,,,,,,,,,,,,,,,,,,,,,,,,,False,
1783647869.8092492,2026-07-09T18:44:29,23277,20260709_184425,,,,,,ground_idle,,,,,,,,,False,0.008497633039951324,0.0061544012278318405,0.9992147088050842,-0.17341011762619019,-0.3890550136566162,-0.04400183632969856,-3.0,2.0,54.0,0.0,0.0,,,,,,,,,,,,,,,,,,,,,,,,,,,,,,False,
1783647869.8193882,2026-07-09T18:44:29,23287,20260709_184425,,,,,,ground_idle,,,,,,,,,False,0.008073740638792515,0.004057273268699646,0.9982637763023376,-0.11174587160348892,0.0038359949830919504,-0.10729741305112839,3.0,0.0,59.0,0.0,0.0,0.0001662510185269639,0.0005402644164860249,3.70749257854186e-05,-0.000435875408584252,-0.0016871123807504773,-9.781723747437354e-06,0.2291315495967865,0.4367799162864685,0.025776077061891556,,,,,,,,,,,,,,,,,,,,,False,
1783647869.8295286,2026-07-09T18:44:29,23297,20260709_184425,,,,,,ground_idle,,,,,,,,,False,0.008615500293672085,0.0019696324598044157,0.9990496635437012,-0.09986689686775208,0.07825030386447906,-0.07018087804317474,0.0,1.0,31.0,0.0,0.0,0.0001662510185269639,0.0005402644164860249,3.70749257854186e-05,-0.000435875408584252,-0.0016871123807504773,-9.781723747437354e-06,0.2291315495967865,0.4367799162864685,0.025776077061891556,,,,,,,,,,,,,,,,,,,,,False,
1783647869.839665,2026-07-09T18:44:29,23307,20260709_184425,,,,,,ground_idle,,,,,,,,,False,0.008771971799433231,0.004700549878180027,1.0003141164779663,-0.08740213513374329,0.17926152050495148,-0.20562966167926788,4.0,0.0,33.0,0.0,0.0,-6.06445137236733e-05,-0.0003830926725640893,1.4635961633757688e-05,-0.001481858897022903,-0.006646282970905304,-0.0003765510336961597,0.26628413796424866,0.44453513622283936,0.02526458166539669,,,,,,,,,,,,,,,,,,,,,False,
1783647869.8498118,2026-07-09T18:44:29,23317,20260709_184425,,,,,,ground_idle,,,,,,,,,False,0.007125270552933216,0.004572600591927767,0.999497652053833,-0.09565720707178116,0.10407338291406631,-0.13686561584472656,0.0,0.0,58.0,0.0,0.0,-6.06445137236733e-05,-0.0003830926725640893,1.4635961633757688e-05,-0.001481858897022903,-0.006646282970905304,-0.0003765510336961597,0.26628413796424866,0.44453513622283936,0.02526458166539669,1.0672863936633803e-05,-0.00037327499012462795,3.621108135121176e-06,0.0002497988170944154,3.7161290645599365,10.0,0.0,0.0,0.0,0.0,0.0,32.766,32.766,0.8300000000000001,32.766,32.766,,,,,False,
1783647869.860005,2026-07-09T18:44:29,23328,20260709_184425,,,,,,ground_idle,,,,,,,,,False,0.006596162915229797,0.002748640952631831,1.001170039176941,0.03947288915514946,0.49375393986701965,-0.09634260833263397,1.0,0.0,55.0,0.0,0.0,-7.352585816988721e-05,0.0002906324516516179,1.7008933355100453e-05,-0.0013057149481028318,-0.0022116017062216997,-0.0002889716124627739,0.22983680665493011,0.4402318000793457,0.02575749158859253,1.0672863936633803e-05,-0.00037327499012462795,3.621108135121176e-06,0.0002497988170944154,3.7161290645599365,10.0,0.0,0.0,0.0,0.0,0.0,32.766,32.766,0.8300000000000001,32.766,32.766,,,,,False,
1783647869.8701591,2026-07-09T18:44:29,23337,20260709_184425,,,,,,ground_idle,,,,,,,,,False,0.009855683892965317,0.003913525957614183,1.0006239414215088,0.11580438911914825,-0.06002627685666084,0.012426941655576229,1.0,0.0,55.0,0.0,0.0,-7.352585816988721e-05,0.0002906324516516179,1.7008933355100453e-05,-0.0013057149481028318,-0.0022116017062216997,-0.0002889716124627739,0.22983680665493011,0.4402318000793457,0.02575749158859253,1.0672863936633803e-05,-0.00037327499012462795,3.621108135121176e-06,0.0002497988170944154,3.7161290645599365,10.0,0.0,0.0,0.0,0.0,0.0,32.766,32.766,0.8300000000000001,32.766,32.766,,,,,False,
1783647869.8803282,2026-07-09T18:44:29,23348,20260709_184425,,,,,,ground_idle,,,,,,,,,False,0.009110596030950546,0.004553221631795168,1.0010015964508057,0.2045007050037384,-0.3902808725833893,-0.2093726396560669,-3.0,3.0,53.0,0.0,0.0,0.0008842553361319005,0.0005352771258912981,8.532551873940974e-06,0.004231190774589777,-0.0006364388973452151,-0.00025343376910313964,0.21722938120365143,0.39114928245544434,0.024053536355495453,1.0672863936633803e-05,-0.00037327499012462795,3.621108135121176e-06,0.0002497988170944154,3.7161290645599365,10.0,0.0,0.0,0.0,0.0,0.0,32.766,32.766,0.8300000000000001,32.766,32.766,,,,,False,
1783647869.8905406,2026-07-09T18:44:29,23357,20260709_184425,,,,,,ground_idle,,,,,,,,,False,0.009580117650330067,0.003630058141425252,1.0005098581314087,-0.0978652611374855,-0.36731138825416565,-0.04900989681482315,-3.0,3.0,53.0,0.0,0.0,0.0008842553361319005,0.0005352771258912981,8.532551873940974e-06,0.004231190774589777,-0.0006364388973452151,-0.00025343376910313964,0.21722938120365143,0.39114928245544434,0.024053536355495453,1.0672863936633803e-05,-0.00037327499012462795,3.621108135121176e-06,0.0002497988170944154,3.7161290645599365,10.0,0.0,0.0,0.0,0.0,0.0,32.766,32.766,0.8300000000000001,32.766,32.766,,,,,False,
1783647869.9007328,2026-07-09T18:44:29,23367,20260709_184425,,,,,,ground_idle,,,,,,,,,False,0.011506921611726284,0.003623474156484008,1.0009289979934692,0.26066628098487854,-0.1437445878982544,-0.3822292983531952,3.0,1.0,58.0,0.0,0.0,-6.911586388014257e-05,0.0005408694269135594,1.640575283090584e-05,-0.0010278435656800866,-0.0006252265302464366,5.289781256578863e-05,0.21838729083538055,0.4380461275577545,0.0238870307803154,1.640575283090584e-05,6.313755875453353e-05,3.7642798815795686e-06,0.0002635949931573123,3.721407651901245,10.0,0.0,0.0,0.0,0.0,0.0,32.766,32.766,0.8300000000000001,32.766,32.766,2023.004638671875,809.56396484375,27.152658462524414,,False,
1783647869.9109652,2026-07-09T18:44:29,23378,20260709_184425,,,,,,ground_idle,,,,,,,,,False,0.008372215554118156,0.0006133036222308874,1.000819206237793,-0.26278388500213623,-0.022421931847929955,0.03707044944167137,-5.0,-4.0,56.0,0.0,0.0,-6.911586388014257e-05,0.0005408694269135594,1.640575283090584e-05,-0.0010278435656800866,-0.0006252265302464366,5.289781256578863e-05,0.21838729083538055,0.4380461275577545,0.0238870307803154,1.640575283090584e-05,6.313755875453353e-05,3.7642798815795686e-06,0.0002635949931573123,3.721407651901245,10.0,0.0,0.0,0.0,0.0,0.0,32.766,32.766,0.8300000000000001,32.766,32.766,2023.004638671875,809.56396484375,27.152658462524414,,False,
1783647869.9211566,2026-07-09T18:44:29,23388,20260709_184425,,,,,,ground_idle,,,,,,,,,False,0.006868539843708277,0.004949461203068495,0.9995779395103455,0.08820628374814987,0.22548717260360718,0.05193920060992241,8.0,0.0,32.0,0.0,0.0,-7.150940655265003e-05,0.0012316679349169135,3.690621451823972e-05,-0.00015202023496385664,0.003370459657162428,0.00027553379186429083,0.1857459992170334,0.43665629625320435,0.024019211530685425,1.640575283090584e-05,6.313755875453353e-05,3.7642798815795686e-06,0.0002635949931573123,3.721407651901245,10.0,0.0,0.0,0.0,0.0,0.0,32.766,32.766,0.8300000000000001,32.766,32.766,2023.004638671875,809.56396484375,27.152658462524414,,False,
1783647869.9313192,2026-07-09T18:44:29,23398,20260709_184425,,,,,,ground_idle,,,,,,,,,False,0.006771532818675041,0.005001305136829615,0.9972032904624939,-0.16470347344875336,-0.14980170130729675,-0.022862421348690987,0.0,1.0,35.0,0.0,0.0,-7.150940655265003e-05,0.0012316679349169135,3.690621451823972e-05,-0.00015202023496385664,0.003370459657162428,0.00027553379186429083,0.1857459992170334,0.43665629625320435,0.024019211530685425,1.640575283090584e-05,6.313755875453353e-05,3.7642798815795686e-06,0.0002635949931573123,3.721407651901245,10.0,0.0,0.0,0.0,0.0,0.0,32.766,32.766,0.8300000000000001,32.766,32.766,2023.004638671875,809.56396484375,27.152658462524414,,False,
1783647869.9414897,2026-07-09T18:44:29,23408,20260709_184425,,,,,,ground_idle,,,,,,,,,False,0.009504633024334908,0.003193841315805912,1.0000146627426147,0.06373895704746246,-0.032456088811159134,-0.15543189644813538,-3.0,-5.0,60.0,0.0,0.0,-0.00030028983019292355,-0.0005947414319962263,3.276069037383422e-05,-0.0015868311747908592,-0.006904895417392254,3.4167813282692805e-05,0.26599887013435364,0.44670918583869934,0.02602529712021351,1.640575283090584e-05,6.313755875453353e-05,3.7642798815795686e-06,0.0002635949931573123,3.721407651901245,10.0,0.0,0.0,0.0,0.0,0.0,32.766,32.766,0.8300000000000001,32.766,32.766,2023.004638671875,809.56396484375,27.152658462524414,,False,
1783647869.95165,2026-07-09T18:44:29,23418,20260709_184425,,,,,,ground_idle,,,,,,,,,False,0.009969450533390045,0.004026961978524923,1.0002859830856323,0.028954748064279556,-0.08455148339271545,-0.09049466252326965,-1.0,0.0,51.0,0.0,0.0,-0.00030028983019292355,-0.0005947414319962263,3.276069037383422e-05,-0.0015868311747908592,-0.006904895417392254,3.4167813282692805e-05,0.26599887013435364,0.44670918583869934,0.02602529712021351,4.427156818564981e-05,-6.522797048091888e-05,3.6435726542549673e-06,0.0002517268294468522,3.7161290645599365,10.0,0.0,0.0,0.0,0.0,0.0,32.766,32.766,0.8280000000000001,32.766,32.766,2023.004638671875,809.56396484375,27.152658462524414,,False,
1783647869.9618084,2026-07-09T18:44:29,23428,20260709_184425,,,,,,ground_idle,,,,,,,,,False,0.01003245823085308,0.003706476418301463,1.0009397268295288,-0.03456339240074158,0.19714538753032684,-0.09546367079019547,-2.0,0.0,56.0,0.0,0.0,0.000823537411633879,0.0003171290154568851,4.530265505309217e-05,0.005039816256612539,-0.0011955543886870146,-5.1640519814100116e-05,0.21681426465511322,0.39807942509651184,0.024207649752497673,4.427156818564981e-05,-6.522797048091888e-05,3.6435726542549673e-06,0.0002517268294468522,3.7161290645599365,10.0,0.0,0.0,0.0,0.0,0.0,32.766,32.766,0.8280000000000001,32.766,32.766,2023.004638671875,809.56396484375,27.152658462524414,,False,
1783647869.972034,2026-07-09T18:44:29,23439,20260709_184425,,,,,,ground_idle,,,,,,,,,False,0.008812109008431435,0.0026730012614279985,1.0010520219802856,0.057293906807899475,-0.2591540813446045,0.02403493970632553,2.0,0.0,56.0,0.0,0.0,0.0008244381169788539,0.0003140606277156621,2.8062406272510998e-05,0.00498897535726428,-0.0012356158113107085,4.970296140527353e-05,0.21681426465511322,0.39807942509651184,0.024207649752497673,4.427156818564981e-05,-6.522797048091888e-05,3.6435726542549673e-06,0.0002517268294468522,3.7161290645599365,10.0,0.0,0.0,0.0,0.0,0.0,32.766,32.766,0.8280000000000001,32.766,32.766,2023.004638671875,809.56396484375,27.152658462524414,,False,
1783647869.982192,2026-07-09T18:44:29,23448,20260709_184425,,,,,,ground_idle,,,,,,,,,False,0.006189767271280289,0.004375748336315155,0.9982982873916626,-0.04890554025769234,-0.30956828594207764,0.057603027671575546,0.0,0.0,51.0,0.0,0.0,0.0008244381169788539,0.0003140606277156621,2.8062406272510998e-05,0.00498897535726428,-0.0012356158113107085,4.970296140527353e-05,0.21773596107959747,0.4004289209842682,0.024878205731511116,4.427156818564981e-05,-6.522797048091888e-05,3.6435726542549673e-06,0.0002517268294468522,3.7161290645599365,10.0,0.0,0.0,0.0,0.0,0.0,32.766,32.766,0.8280000000000001,32.766,32.766,2023.004638671875,809.56396484375,27.152658462524414,,False,
1783647869.9925005,2026-07-09T18:44:29,23459,20260709_184425,,,,,,ground_idle,,,,,,,,,False,0.008109922520816326,0.0039970953948795795,0.9997199773788452,-0.1657973974943161,-0.31813299655914307,0.07153580337762833,0.0,0.0,53.0,0.0,0.0,0.000925287080463022,0.00028857524739578366,2.7905012757400982e-05,0.0050697289407253265,-0.0012591260019689798,-0.00014291070692706853,0.21773596107959747,0.4004289209842682,0.024878205731511116,4.427156818564981e-05,-6.522797048091888e-05,3.6435726542549673e-06,0.0002517268294468522,3.7161290645599365,10.0,0.0,0.0,0.0,0.0,0.0,32.766,32.766,0.8280000000000001,32.766,32.766,2023.004638671875,809.56396484375,27.152658462524414,,False,
1783647870.0027082,2026-07-09T18:44:30,23468,20260709_184425,,,,,,ground_idle,,,,,,,,,False,0.007861686870455742,0.004474859219044447,1.000802755355835,-0.034032341092824936,-0.15034794807434082,0.06382612884044647,0.0,2.0,55.0,0.0,0.0,0.000925287080463022,0.00028857524739578366,2.7905012757400982e-05,0.0050697289407253265,-0.0012591260019689798,-0.00014291070692706853,0.21510258316993713,0.4044244587421417,0.025035811588168144,2.7905012757400982e-05,-0.0001739516155794263,3.7810084450029535e-06,0.00026426141266711056,3.721407651901245,10.0,0.0,0.0,0.0,0.0,0.0,32.766,32.766,0.8280000000000001,32.766,32.766,2023.1195068359375,809.5533447265625,27.15795135498047,,False,
1783647870.0129182,2026-07-09T18:44:30,23479,20260709_184425,,,,,,ground_idle,,,,,,,,,False,0.006263397168368101,0.0019864581990987062,1.002029299736023,-0.053852539509534836,0.14278915524482727,0.03112947940826416,0.0,-1.0,57.0,0.0,0.0,0.0006639545899815857,0.00029149887268431485,3.106020449195057e-05,0.003148225601762533,-0.0010761322919279337,0.00010504770034458488,0.21510258316993713,0.4044244587421417,0.025035811588168144,2.7905012757400982e-05,-0.0001739516155794263,3.7810084450029535e-06,0.00026426141266711056,3.721407651901245,10.0,0.0,0.0,0.0,0.0,0.0,32.766,32.766,0.8280000000000001,32.766,32.766,2023.1195068359375,809.5533447265625,27.15795135498047,,False,
1783647870.0231407,2026-07-09T18:44:30,23488,20260709_184425,,,,,,ground_idle,,,,,,,,,False,0.006950205657631159,0.003642171621322632,0.9998775720596313,0.11496777832508087,0.06081072613596916,-0.09673663973808289,-1.0,2.0,33.0,0.0,0.0,0.0006639545899815857,0.00029149887268431485,3.106020449195057e-05,0.003148225601762533,-0.0010761322919279337,0.00010504770034458488,0.21298451721668243,0.4219571352005005,0.02522330917418003,2.7905012757400982e-05,-0.0001739516155794263,3.7810084450029535e-06,0.00026426141266711056,3.721407651901245,10.0,0.0,0.0,0.0,0.0,0.0,32.766,32.766,0.8280000000000001,32.766,32.766,2023.1195068359375,809.5533447265625,27.15795135498047,,False,
1783647870.0333056,2026-07-09T18:44:30,23501,20260709_184425,,,,,,ground_idle,,,,,,,,,False,0.0070699662901461124,0.0038170390762388706,1.0021814107894897,-0.08480171859264374,-0.22702784836292267,-0.05799904838204384,0.0,2.0,32.0,0.0,0.0,-0.00030704704113304615,0.0005392091698013246,2.0053761545568705e-05,-0.0028715296648442745,0.00039428606396541,0.00022317520051728934,0.19989894330501556,0.4687070846557617,0.024349112063646317,2.7905012757400982e-05,-0.0001739516155794263,3.7810084450029535e-06,0.00026426141266711056,3.721407651901245,10.0,0.0,0.0,0.0,0.0,0.0,32.766,32.766,0.8280000000000001,32.766,32.766,2023.1195068359375,809.5533447265625,27.15795135498047,,False,
1783647870.0434687,2026-07-09T18:44:30,23508,20260709_184425,,,,,,ground_idle,,,,,,,,,False,0.006535685621201992,0.003124091774225235,1.0007983446121216,0.08912325650453568,0.14175769686698914,0.18375878036022186,0.0,-5.0,54.0,0.0,0.0,-0.00030704704113304615,0.0005392091698013246,2.0053761545568705e-05,-0.0028715296648442745,0.00039428606396541,0.00022317520051728934,0.19989894330501556,0.4687070846557617,0.024349112063646317,2.7905012757400982e-05,-0.0001739516155794263,3.7810084450029535e-06,0.00026426141266711056,3.721407651901245,10.0,0.0,0.0,0.0,0.0,0.0,32.766,32.766,0.8280000000000001,32.766,32.766,2023.1195068359375,809.5533447265625,27.15795135498047,,False,
1783647870.0536265,2026-07-09T18:44:30,23521,20260709_184425,,,,,,ground_idle,,,,,,,,,False,0.008272533304989338,0.003625600365921855,0.9977425932884216,-0.38414397835731506,-0.07798521965742111,-0.14312902092933655,0.0,3.0,57.0,0.0,0.0,0.00017402741650585085,0.0005472955526784062,4.048336631967686e-05,-0.00029360715416260064,0.0003997623862233013,0.0004429827386047691,0.19787350296974182,0.4465901851654053,0.02469509281218052,3.152879799017683e-05,0.0004576986830215901,3.6511407870420953e-06,0.00025209307204931974,3.7161290645599365,10.0,0.0,0.0,0.0,0.0,0.0,32.766,32.766,0.833,32.766,32.766,2023.1195068359375,809.5533447265625,27.15795135498047,,False,
1783647870.0637994,2026-07-09T18:44:30,23528,20260709_184425,,,,,,ground_idle,,,,,,,,,False,0.009385992772877216,0.0020570175256580114,0.9999653697013855,0.00516643188893795,-0.3146822154521942,0.12656569480895996,-3.0,-1.0,55.0,0.0,0.0,0.00017402741650585085,0.0005472955526784062,4.048336631967686e-05,-0.00029360715416260064,0.0003997623862233013,0.0004429827386047691,0.19787350296974182,0.4465901851654053,0.02469509281218052,3.152879799017683e-05,0.0004576986830215901,3.6511407870420953e-06,0.00025209307204931974,3.7161290645599365,10.0,0.0,0.0,0.0,0.0,0.0,32.766,32.766,0.833,32.766,32.766,2023.1195068359375,809.5533447265625,27.15795135498047,,False,
1783647870.0740223,2026-07-09T18:44:30,23541,20260709_184425,,,,,,ground_idle,,,,,,,,,False,0.007648876868188381,0.0034405577462166548,0.9989763498306274,0.11127722263336182,0.27655544877052307,-0.05246773362159729,3.0,2.0,52.0,0.0,0.0,-5.7886943977791816e-05,0.0005486286245286465,3.196785837644711e-05,-0.0014780043857172132,2.7094911274616607e-05,0.00019945952226407826,0.19789180159568787,0.4595352113246918,0.0236574225127697,3.152879799017683e-05,0.0004576986830215901,3.6511407870420953e-06,0.00025209307204931974,3.7161290645599365,10.0,0.0,0.0,0.0,0.0,0.0,32.766,32.766,0.833,32.766,32.766,2023.1195068359375,809.5533447265625,27.15795135498047,,False,
1783647870.0841777,2026-07-09T18:44:30,23548,20260709_184425,,,,,,ground_idle,,,,,,,,,False,0.007763026747852564,0.004751049447804689,1.0009360313415527,-0.0662594810128212,0.09942366927862167,0.13108067214488983,-1.0,-3.0,56.0,0.0,0.0,-5.7886943977791816e-05,0.0005486286245286465,3.196785837644711e-05,-0.0014780043857172132,2.7094911274616607e-05,0.00019945952226407826,0.19789180159568787,0.4595352113246918,0.0236574225127697,3.152879799017683e-05,0.0004576986830215901,3.6511407870420953e-06,0.00025209307204931974,3.7161290645599365,10.0,0.0,0.0,0.0,0.0,0.0,32.766,32.766,0.833,32.766,32.766,2023.1195068359375,809.5533447265625,27.15795135498047,,False,
1783647870.0943408,2026-07-09T18:44:30,23561,20260709_184425,,,,,,ground_idle,,,,,,,,,False,0.0067358738742768764,0.002423397032544017,1.0015068054199219,0.08944098651409149,0.005752576980739832,-0.044857826083898544,1.0,3.0,58.0,0.0,0.0,-5.545594103750773e-05,0.0005469068419188261,4.168353189015761e-05,-0.001538264681585133,6.897469575051218e-05,0.0003297452931292355,0.20081980526447296,0.45789799094200134,0.023327680304646492,3.152879799017683e-05,0.0004576986830215901,3.6511407870420953e-06,0.00025209307204931974,3.7161290645599365,10.0,0.0,0.0,0.0,0.0,0.0,32.766,32.766,0.833,32.766,32.766,2023.1195068359375,809.5533447265625,27.15795135498047,,False,
1783647870.1045246,2026-07-09T18:44:30,23568,20260709_184425,,,,,,ground_idle,,,,,,,,,False,0.009645100682973862,0.003648275975137949,1.0013774633407593,-0.08735876530408859,0.1714474856853485,-0.04027026891708374,1.0,-4.0,55.0,0.0,0.0,-5.545594103750773e-05,0.0005469068419188261,4.168353189015761e-05,-0.001538264681585133,6.897469575051218e-05,0.0003297452931292355,0.20081980526447296,0.45789799094200134,0.023327680304646492,4.168353189015761e-05,0.00034178263740614057,3.784414957408444e-06,0.0002604392357170582,3.721407651901245,10.0,0.0,0.0,0.0,0.0,0.0,32.766,32.766,0.833,32.766,32.766,2023.0975341796875,809.5556640625,27.167858123779297,,False,
1783647870.114691,2026-07-09T18:44:30,23581,20260709_184425,,,,,,ground_idle,,,,,,,,,False,0.007203260436654091,0.0029129358008503914,1.0014266967773438,0.20999489724636078,0.16973204910755157,-0.03552784398198128,-4.0,4.0,59.0,0.0,0.0,-3.9951628423295915e-05,0.0012194730807095766,6.577646126970649e-05,-0.001442697481252253,0.00400163559243083,0.0007256398093886673,0.16750963032245636,0.45478731393814087,0.023449013009667397,4.168353189015761e-05,0.00034178263740614057,3.784414957408444e-06,0.0002604392357170582,3.721407651901245,10.0,0.0,0.0,0.0,0.0,0.0,32.766,32.766,0.833,32.766,32.766,2023.0975341796875,809.5556640625,27.167858123779297,,False,
1783647870.1248786,2026-07-09T18:44:30,23588,20260709_184425,,,,,,ground_idle,,,,,,,,,False,0.00696032028645277,0.004830668214708567,1.0010849237442017,-0.04551991820335388,0.2487415075302124,0.015928538516163826,4.0,1.0,32.0,0.0,0.0,-3.9951628423295915e-05,0.0012194730807095766,6.577646126970649e-05,-0.001442697481252253,0.00400163559243083,0.0007256398093886673,0.16750963032245636,0.45478731393814087,0.023449013009667397,4.168353189015761e-05,0.00034178263740614057,3.784414957408444e-06,0.0002604392357170582,3.721407651901245,10.0,0.0,0.0,0.0,0.0,0.0,32.766,32.766,0.833,32.766,32.766,2023.0975341796875,809.5556640625,27.167858123779297,,False,
1783647870.1352372,2026-07-09T18:44:30,23601,20260709_184425,,,,,,ground_idle,,,,,,,,,False,0.007505251560360193,0.005032480228692293,0.9995967745780945,-0.047817815095186234,-0.280530720949173,-0.02926613576710224,0.0,3.0,32.0,0.0,0.0,-0.0009289550362154841,0.00032218449632637203,4.717735282611102e-05,-0.0066096847876906395,-0.0012297327630221844,0.0006455705733969808,0.21271948516368866,0.4944339394569397,0.024190928786993027,4.168353189015761e-05,0.00034178263740614057,3.784414957408444e-06,0.0002604392357170582,3.721407651901245,10.0,0.0,0.0,0.0,0.0,0.0,32.766,32.766,0.833,32.766,32.766,2023.0975341796875,809.5556640625,27.167858123779297,,False,
1783647870.1454244,2026-07-09T18:44:30,23612,20260709_184425,,,,,,ground_idle,,,,,,,,,False,0.008397885598242283,0.0028673571068793535,0.9982343316078186,-0.04377537593245506,-0.3323426842689514,-0.020116955041885376,-2.0,-8.0,54.0,0.0,0.0,-0.0009289550362154841,0.00032218449632637203,4.717735282611102e-05,-0.0066096847876906395,-0.0012297327630221844,0.0006455705733969808,0.21271948516368866,0.4944339394569397,0.024190928786993027,7.776000711601228e-05,0.0006596299353986979,3.646703362392145e-06,0.00024897270486690104,3.721407651901245,10.0,0.0,0.0,0.0,0.0,0.0,32.766,32.766,0.833,32.766,32.766,2023.0975341796875,809.5556640625,27.167858123779297,,False,
1783647870.1555965,2026-07-09T18:44:30,23621,20260709_184425,,,,,,ground_idle,,,,,,,,,False,0.008056865073740482,0.0027320145163685083,0.9986854791641235,-0.044100936502218246,0.20974859595298767,0.1626260131597519,1.0,3.0,53.0,0.0,0.0,0.0001752407697495073,0.000541113899089396,9.001341095427051e-05,0.00011660098243737593,4.7425412049051374e-05,0.0005669955280609429,0.20254962146282196,0.44260793924331665,0.02310868725180626,7.776000711601228e-05,0.0006596299353986979,3.646703362392145e-06,0.00024897270486690104,3.7161290645599365,10.0,0.0,0.0,0.0,0.0,0.0,32.766,32.766,0.838,32.766,32.766,2023.0975341796875,809.5556640625,27.167858123779297,,False,
1783647870.1657736,2026-07-09T18:44:30,23628,20260709_184425,,,,,,ground_idle,,,,,,,,,False,0.008054985664784908,0.004992310889065266,1.0004342794418335,-0.30360469222068787,-0.32737216353416443,0.013569268397986889,0.0,0.0,58.0,0.0,0.0,0.0001752407697495073,0.000541113899089396,9.001341095427051e-05,0.00011660098243737593,4.7425412049051374e-05,0.0005669955280609429,0.20254962146282196,0.44260793924331665,0.02310868725180626,7.776000711601228e-05,0.0006596299353986979,3.646703362392145e-06,0.00024897270486690104,3.7161290645599365,10.0,0.0,0.0,0.0,0.0,0.0,32.766,32.766,0.838,32.766,32.766,2023.0975341796875,809.5556640625,27.167858123779297,,False,
1783647870.1759803,2026-07-09T18:44:30,23641,20260709_184425,,,,,,ground_idle,,,,,,,,,False,0.008135044015944004,0.004532892256975174,1.0015571117401123,0.33380717039108276,0.09932830929756165,-0.01988361030817032,0.0,2.0,53.0,0.0,0.0,-0.00028656094218604267,0.0005404014373198152,5.88274524488952e-05,-0.002551725134253502,0.0002015956852119416,0.00045614835107699037,0.2002880573272705,0.46579042077064514,0.02471114508807659,7.776000711601228e-05,0.0006596299353986979,3.646703362392145e-06,0.00024897270486690104,3.7161290645599365,10.0,0.0,0.0,0.0,0.0,0.0,32.766,32.766,0.838,32.766,32.766,2023.0975341796875,809.5556640625,27.167858123779297,,False,
1783647870.1861987,2026-07-09T18:44:30,23648,20260709_184425,,,,,,ground_idle,,,,,,,,,False,0.007214543409645557,0.0034295974764972925,1.0010948181152344,-0.037760425359010696,-0.2277972549200058,0.16351772844791412,1.0,-1.0,30.0,0.0,0.0,-0.00028656094218604267,0.0005404014373198152,5.88274524488952e-05,-0.002551725134253502,0.0002015956852119416,0.00045614835107699037,0.2002880573272705,0.46579042077064514,0.02471114508807659,7.776000711601228e-05,0.0006596299353986979,3.646703362392145e-06,0.00024897270486690104,3.7161290645599365,10.0,0.0,0.0,0.0,0.0,0.0,32.766,32.766,0.838,32.766,32.766,2023.0975341796875,809.5556640625,27.167858123779297,,False,
1783647870.1963873,2026-07-09T18:44:30,23663,20260709_184425,,,,,,ground_idle,,,,,,,,,False,0.005600864067673683,0.002872948767617345,1.0011205673217773,0.0807485282421112,-0.24021218717098236,-0.2593434154987335,0.0,0.0,55.0,0.0,0.0,-7.311171793844551e-05,0.00030090732616372406,7.14729685569182e-05,-0.001256974064745009,-0.0011572364019230008,0.0006623358931392431,0.21074388921260834,0.4551522433757782,0.02595657669007778,7.14729685569182e-05,0.0006765556172467768,3.7690756471420173e-06,0.00025221178657375276,3.721407651901245,10.0,0.0,0.0,0.0,0.0,0.0,32.766,32.766,0.838,32.766,32.766,2023.0975341796875,809.5556640625,27.167858123779297,,False,
1783647870.2066078,2026-07-09T18:44:30,23668,20260709_184425,,,,,,ground_idle,,,,,,,,,False,0.004283027723431587,0.0049348329193890095,1.0017116069793701,0.1524023711681366,-0.23666347563266754,0.13367463648319244,0.0,0.0,54.0,0.0,0.0,-7.311171793844551e-05,0.00030090732616372406,7.14729685569182e-05,-0.001256974064745009,-0.0011572364019230008,0.0006623358931392431,0.21074388921260834,0.4551522433757782,0.02595657669007778,7.14729685569182e-05,0.0006765556172467768,3.7690756471420173e-06,0.00025221178657375276,3.721407651901245,10.0,0.0,0.0,0.0,0.0,0.0,32.766,32.766,0.838,32.766,32.766,2023.1522216796875,809.550537109375,27.175365447998047,,False,
1783647870.2168252,2026-07-09T18:44:30,23681,20260709_184425,,,,,,ground_idle,,,,,,,,,False,0.008810589089989662,0.0035986718721687794,1.00090491771698,0.14541400969028473,0.17023704946041107,-0.012778421863913536,-4.0,0.0,56.0,0.0,0.0,-8.909474854590371e-05,0.0013082573423162103,9.081049938686192e-05,-0.001694637117907405,0.004913581535220146,0.0009877047268673778,0.16348327696323395,0.4567009508609772,0.023860890418291092,7.14729685569182e-05,0.0006765556172467768,3.7690756471420173e-06,0.00025221178657375276,3.721407651901245,10.0,0.0,0.0,0.0,0.0,0.0,32.766,32.766,0.838,32.766,32.766,2023.1522216796875,809.550537109375,27.175365447998047,,False,
1783647870.227116,2026-07-09T18:44:30,23688,20260709_184425,,,,,,ground_idle,,,,,,,,,False,0.008288953453302383,0.003504761727526784,0.9984731078147888,0.026568157598376274,0.052217669785022736,-0.022916989400982857,3.0,1.0,31.0,0.0,0.0,-8.909474854590371e-05,0.0013082573423162103,9.081049938686192e-05,-0.001694637117907405,0.004913581535220146,0.0009877047268673778,0.16348327696323395,0.4567009508609772,0.023860890418291092,7.14729685569182e-05,0.0006765556172467768,3.7690756471420173e-06,0.00025221178657375276,3.721407651901245,10.0,0.0,0.0,0.0,0.0,0.0,32.766,32.766,0.838,32.766,32.766,2023.1522216796875,809.550537109375,27.175365447998047,,False,
1783647870.2372742,2026-07-09T18:44:30,23701,20260709_184425,,,,,,ground_idle,,,,,,,,,False,0.008094510063529015,0.005233846604824066,0.9975601434707642,-0.1309700906276703,-0.2425263524055481,-0.038798458874225616,0.0,-1.0,34.0,0.0,0.0,-8.29955970402807e-05,0.0005426224088296294,6.642277003265917e-05,-0.0012922529131174088,0.00030511492514051497,0.0005626238416880369,0.20257017016410828,0.4523991644382477,0.023590119555592537,7.14729685569182e-05,0.0006765556172467768,3.7690756471420173e-06,0.00025221178657375276,3.721407651901245,10.0,0.0,0.0,0.0,0.0,0.0,32.766,32.766,0.838,32.766,32.766,2023.1522216796875,809.550537109375,27.175365447998047,,False,
1783647870.247426,2026-07-09T18:44:30,23713,20260709_184425,,,,,,ground_idle,,,,,,,,,False,0.008561848662793636,0.0035436516627669334,1.0007365942001343,-0.027127927169203758,0.1365908682346344,-0.11117150634527206,0.0,0.0,52.0,0.0,0.0,-8.29955970402807e-05,0.0005426224088296294,6.642277003265917e-05,-0.0012922529131174088,0.00030511492514051497,0.0005626238416880369,0.20257017016410828,0.4523991644382477,0.023590119555592537,7.157467189244926e-05,0.00047678404371254146,3.62185392077663e-06,0.00023540545953437686,3.7161290645599365,10.0,0.0,0.0,0.0,0.0,0.0,32.766,32.766,0.838,32.766,32.766,2023.1522216796875,809.550537109375,27.175365447998047,,False,
1783647870.2575822,2026-07-09T18:44:30,23721,20260709_184425,,,,,,ground_idle,,,,,,,,,False,0.009263167157769203,0.005315701011568308,1.0014406442642212,-0.2866152822971344,0.06304781138896942,0.04650422930717468,1.0,0.0,56.0,0.0,0.0,-9.247330308426172e-05,0.00028691402985714376,7.672925130464137e-05,-0.0010836732108145952,-0.0010843961499631405,0.0005651983665302396,0.21481427550315857,0.45103493332862854,0.022448517382144928,7.157467189244926e-05,0.00047678404371254146,3.62185392077663e-06,0.00023540545953437686,3.7161290645599365,10.0,0.0,0.0,0.0,0.0,0.0,32.766,32.766,0.8270000000000001,32.766,32.766,2023.1522216796875,809.550537109375,27.175365447998047,,False,
1783647870.2677588,2026-07-09T18:44:30,23728,20260709_184425,,,,,,ground_idle,,,,,,,,,False,0.00851837731897831,0.00424159737303853,0.999757707118988,-0.04026958346366882,-0.06354685127735138,-0.0530427061021328,0.0,-4.0,57.0,0.0,0.0,-9.247330308426172e-05,0.00028691402985714376,7.672925130464137e-05,-0.0010836732108145952,-0.0010843961499631405,0.0005651983665302396,0.21481427550315857,0.45103493332862854,0.022448517382144928,7.157467189244926e-05,0.00047678404371254146,3.62185392077663e-06,0.00023540545953437686,3.7161290645599365,10.0,0.0,0.0,0.0,0.0,0.0,32.766,32.766,0.8270000000000001,32.766,32.766,2023.1522216796875,809.550537109375,27.175365447998047,,False,
1783647870.278659,2026-07-09T18:44:30,23741,20260709_184425,,,,,,ground_idle,,,,,,,,,False,0.009018730372190475,0.003402514848858118,0.9996088743209839,-0.033075228333473206,0.24974314868450165,-0.042616866528987885,-4.0,1.0,53.0,0.0,0.0,0.0006786002195440233,0.001303659868426621,5.6898144976003096e-05,0.003309288527816534,0.004909111186861992,0.00041570287430658937,0.16513340175151825,0.4144679307937622,0.023106398060917854,7.157467189244926e-05,0.00047678404371254146,3.62185392077663e-06,0.00023540545953437686,3.7161290645599365,10.0,0.0,0.0,0.0,0.0,0.0,32.766,32.766,0.8270000000000001,32.766,32.766,2023.1522216796875,809.550537109375,27.175365447998047,,False,
1783647870.2889023,2026-07-09T18:44:30,23748,20260709_184425,,,,,,ground_idle,,,,,,,,,False,0.009374710731208324,0.00345189799554646,1.0013245344161987,0.02010943926870823,0.18007077276706696,-0.0429973341524601,7.0,2.0,37.0,0.0,0.0,0.0006786002195440233,0.001303659868426621,5.6898144976003096e-05,0.003309288527816534,0.004909111186861992,0.00041570287430658937,0.16513340175151825,0.4144679307937622,0.023106398060917854,7.157467189244926e-05,0.00047678404371254146,3.62185392077663e-06,0.00023540545953437686,3.7161290645599365,10.0,0.0,0.0,0.0,0.0,0.0,32.766,32.766,0.8270000000000001,32.766,32.766,2023.1522216796875,809.550537109375,27.175365447998047,,False,
1783647870.2993336,2026-07-09T18:44:30,23765,20260709_184425,,,,,,ground_idle,,,,,,,,,False,0.009801509790122509,0.004671304486691952,1.000901222229004,-0.056984614580869675,0.05626128241419792,0.05299045890569687,1.0,2.0,52.0,0.0,0.0,-0.0003181585343554616,-0.0006933349068276584,7.984751573530957e-05,-0.0021224855445325375,-0.006363978143781424,0.0006363018765114248,0.25730201601982117,0.4598826467990875,0.022359086200594902,7.984751573530957e-05,0.0006819073460064828,3.7252591482683783e-06,0.00024177516752388328,3.721407651901245,10.0,0.0,0.0,0.0,0.0,0.0,32.766,32.766,0.8270000000000001,32.766,32.766,2023.07568359375,809.5572509765625,27.187835693359375,,False,
1783647870.309511,2026-07-09T18:44:30,23777,20260709_184425,,,,,,ground_idle,,,,,,,,,False,0.00705180736258626,0.004970050882548094,0.9994114637374878,0.3188277781009674,-0.23009979724884033,-0.17986319959163666,-3.0,-1.0,54.0,0.0,0.0,-0.0003181585343554616,-0.0006933349068276584,7.984751573530957e-05,-0.0021224855445325375,-0.006363978143781424,0.0006363018765114248,0.25730201601982117,0.4598826467990875,0.022359086200594902,7.984751573530957e-05,0.0006819073460064828,3.7252591482683783e-06,0.00024177516752388328,3.721407651901245,10.0,0.0,0.0,0.0,0.0,0.0,32.766,32.766,0.8270000000000001,32.766,32.766,2023.07568359375,809.5572509765625,27.187835693359375,,False,
1783647870.3196955,2026-07-09T18:44:30,23787,20260709_184425,,,,,,ground_idle,,,,,,,,,False,0.008460738696157932,0.0025200657546520233,0.9981501698493958,-0.11022185534238815,-0.11172717809677124,0.028986649587750435,-2.0,0.0,51.0,0.0,0.0,-7.154717604862526e-05,0.0005330965504981577,0.00010656708764145151,-0.0004572503676172346,0.0011252601398155093,0.0007005981751717627,0.19841165840625763,0.4475460946559906,0.023011621087789536,7.984751573530957e-05,0.0006819073460064828,3.7252591482683783e-06,0.00024177516752388328,3.721407651901245,10.0,0.0,0.0,0.0,0.0,0.0,32.766,32.766,0.8270000000000001,32.766,32.766,2023.07568359375,809.5572509765625,27.187835693359375,,False,
1783647870.3298552,2026-07-09T18:44:30,23797,20260709_184425,,,,,,ground_idle,,,,,,,,,False,0.010324659757316113,0.005732490215450525,0.9980620741844177,0.31821396946907043,0.023936990648508072,0.03832832723855972,0.0,0.0,35.0,0.0,0.0,-7.154717604862526e-05,0.0005330965504981577,0.00010656708764145151,-0.0004572503676172346,0.0011252601398155093,0.0007005981751717627,0.19841165840625763,0.4475460946559906,0.023011621087789536,7.984751573530957e-05,0.0006819073460064828,3.7252591482683783e-06,0.00024177516752388328,3.721407651901245,10.0,0.0,0.0,0.0,0.0,0.0,32.766,32.766,0.8270000000000001,32.766,32.766,2023.07568359375,809.5572509765625,27.187835693359375,,False,
1783647870.3400521,2026-07-09T18:44:30,23807,20260709_184425,,,,,,ground_idle,,,,,,,,,False,0.008252560161054134,0.005740659777075052,0.9986768960952759,-0.17250500619411469,0.007670375518500805,0.09973303973674774,4.0,1.0,34.0,0.0,0.0,-0.0003269327280577272,-0.0004797507426701486,6.49816429358907e-05,-0.0016340557485818863,-0.004599308595061302,0.00012171940761618316,0.25037819147109985,0.45953434705734253,0.021924760192632675,7.984751573530957e-05,0.0006819073460064828,3.7252591482683783e-06,0.00024177516752388328,3.721407651901245,10.0,0.0,0.0,0.0,0.0,0.0,32.766,32.766,0.8270000000000001,32.766,32.766,2023.07568359375,809.5572509765625,27.187835693359375,,False,
1783647870.3502088,2026-07-09T18:44:30,23818,20260709_184425,,,,,,ground_idle,,,,,,,,,False,0.00878329947590828,0.004710811655968428,1.0000364780426025,-0.1885267198085785,0.00857601873576641,-0.035719841718673706,3.0,6.0,49.0,0.0,0.0,-0.0003269327280577272,-0.0004797507426701486,6.49816429358907e-05,-0.0016340557485818863,-0.004599308595061302,0.00012171940761618316,0.25037819147109985,0.45953434705734253,0.021924760192632675,7.507665577577427e-05,1.1013394640713159e-07,3.573579533622251e-06,0.00022140858345665038,3.7161290645599365,10.0,0.0,0.0,0.0,0.0,0.0,32.766,32.766,0.836,32.766,32.766,2023.07568359375,809.5572509765625,27.187835693359375,,False,
1783647870.3604045,2026-07-09T18:44:30,23828,20260709_184425,,,,,,ground_idle,,,,,,,,,False,0.007380401715636253,0.0040427460335195065,0.9998701810836792,-0.09989816695451736,-0.04507589340209961,-0.2422197461128235,-3.0,-6.0,52.0,0.0,0.0,-0.0005728788091801107,-0.0004511206643655896,8.962460560724139e-05,-0.0029624581802636385,-0.0038866170216351748,3.4998400224139914e-05,0.2442808449268341,0.47382789850234985,0.020766109228134155,7.507665577577427e-05,1.1013394640713159e-07,3.573579533622251e-06,0.00022140858345665038,3.7161290645599365,10.0,0.0,0.0,0.0,0.0,0.0,32.766,32.766,0.836,32.766,32.766,2023.07568359375,809.5572509765625,27.187835693359375,,False,
1783647870.3706028,2026-07-09T18:44:30,23837,20260709_184425,,,,,,ground_idle,,,,,,,,,False,0.006909638177603483,0.006113762501627207,0.999676525592804,-0.03536394611001015,0.09322810918092728,0.17256619036197662,-3.0,-6.0,52.0,0.0,0.0,-0.0005728788091801107,-0.0004511206643655896,8.962460560724139e-05,-0.0029624581802636385,-0.0038866170216351748,3.4998400224139914e-05,0.2442808449268341,0.47382789850234985,0.020766109228134155,7.507665577577427e-05,1.1013394640713159e-07,3.573579533622251e-06,0.00022140858345665038,3.7161290645599365,10.0,0.0,0.0,0.0,0.0,0.0,32.766,32.766,0.836,32.766,32.766,2023.07568359375,809.5572509765625,27.187835693359375,,False,
1783647870.3807771,2026-07-09T18:44:30,23847,20260709_184425,,,,,,ground_idle,,,,,,,,,False,0.008981446735560894,0.005777096375823021,1.002274751663208,-0.1584184616804123,-0.5694139003753662,-0.05086679756641388,1.0,3.0,52.0,0.0,0.0,0.00017341967031825334,4.670417183660902e-05,6.63569153402932e-05,0.0010136516066268086,-0.0008180176955647767,-8.165076724253595e-05,0.21949680149555206,0.43913328647613525,0.020430544391274452,7.507665577577427e-05,1.1013394640713159e-07,3.573579533622251e-06,0.00022140858345665038,3.7161290645599365,10.0,0.0,0.0,0.0,0.0,0.0,32.766,32.766,0.836,32.766,32.766,2023.07568359375,809.5572509765625,27.187835693359375,,False,
1783647870.3910317,2026-07-09T18:44:30,23859,20260709_184425,,,,,,ground_idle,,,,,,,,,False,0.00950869545340538,0.004661206621676683,1.0019803047180176,-0.25497063994407654,-0.0170133039355278,0.10761959850788116,1.0,0.0,56.0,0.0,0.0,0.000646152242552489,0.0002971476351376623,6.903725443407893e-05,0.0035656339023262262,0.0008739011827856302,0.00029865760006941855,0.21949680149555206,0.43913328647613525,0.020430544391274452,7.507665577577427e-05,1.1013394640713159e-07,3.573579533622251e-06,0.00022140858345665038,3.7161290645599365,10.0,0.0,0.0,0.0,0.0,0.0,32.766,32.766,0.836,32.766,32.766,2023.07568359375,809.5572509765625,27.187835693359375,,False,
1783647870.4015062,2026-07-09T18:44:30,23868,20260709_184425,,,,,,ground_idle,,,,,,,,,False,0.010165845043957233,0.0028452614787966013,0.9984763264656067,0.2361685335636139,-0.07315488904714584,-0.030265282839536667,0.0,3.0,55.0,0.0,0.0,0.000646152242552489,0.0002971476351376623,6.903725443407893e-05,0.0035656339023262262,0.0008739011827856302,0.00029865760006941855,0.204740971326828,0.42104673385620117,0.020289644598960876,6.903725443407893e-05,0.0002693253627512604,3.659763024188578e-06,0.00022281784913502634,3.721407651901245,10.0,0.0,0.0,0.0,0.0,0.0,32.766,32.766,0.836,32.766,32.766,2023.1632080078125,809.5496215820312,27.196918487548828,,False,
1783647870.4116974,2026-07-09T18:44:30,23878,20260709_184425,,,,,,ground_idle,,,,,,,,,False,0.006717476062476635,0.003106576157733798,1.0002121925354004,-0.017404191195964813,-0.10291169583797455,-0.07893675565719604,0.0,0.0,60.0,0.0,0.0,0.000646152242552489,0.0002971476351376623,6.903725443407893e-05,0.0035656339023262262,0.0008739011827856302,0.00029865760006941855,0.204740971326828,0.42104673385620117,0.020289644598960876,6.903725443407893e-05,0.0002693253627512604,3.659763024188578e-06,0.00022281784913502634,3.721407651901245,10.0,0.0,0.0,0.0,0.0,0.0,32.766,32.766,0.836,32.766,32.766,2023.1632080078125,809.5496215820312,27.196918487548828,,False,
1783647870.4219148,2026-07-09T18:44:30,23888,20260709_184425,,,,,,ground_idle,,,,,,,,,False,0.008094887249171734,0.00427375128492713,1.001587986946106,0.036176759749650955,-0.46366313099861145,0.1321665346622467,0.0,0.0,34.0,0.0,0.0,-7.688818004680797e-05,0.0003011409135069698,7.83043506089598e-05,-0.000315167912049219,0.0007755980477668345,0.00018151469703298062,0.2054833322763443,0.4580453634262085,0.018226362764835358,6.903725443407893e-05,0.0002693253627512604,3.659763024188578e-06,0.00022281784913502634,3.721407651901245,10.0,0.0,0.0,0.0,0.0,0.0,32.766,32.766,0.836,32.766,32.766,2023.1632080078125,809.5496215820312,27.196918487548828,,False,
1783647870.4321866,2026-07-09T18:44:30,23898,20260709_184425,,,,,,ground_idle,,,,,,,,,False,0.009391889907419682,0.0029208643827587366,0.9986357688903809,-0.13420386612415314,-0.08988125622272491,0.003444428788498044,3.0,0.0,31.0,0.0,0.0,-7.688818004680797e-05,0.0003011409135069698,7.83043506089598e-05,-0.000315167912049219,0.0007755980477668345,0.00018151469703298062,0.2054833322763443,0.4580453634262085,0.018226362764835358,6.903725443407893e-05,0.0002693253627512604,3.659763024188578e-06,0.00022281784913502634,3.721407651901245,10.0,0.0,0.0,0.0,0.0,0.0,32.766,32.766,0.836,32.766,32.766,2023.1632080078125,809.5496215820312,27.196918487548828,,False,
1783647870.4423482,2026-07-09T18:44:30,23908,20260709_184425,,,,,,ground_idle,,,,,,,,,False,0.007696719840168953,0.004941700026392937,0.9987438917160034,-0.017299987375736237,0.20493392646312714,-0.01885179616510868,0.0,1.0,57.0,0.0,0.0,-7.993703184183687e-05,-0.0004714676470030099,4.710438588517718e-05,-0.00026425320538692176,-0.0035103000700473785,0.00020190354553051293,0.24029366672039032,0.4595378339290619,0.01803440786898136,6.903725443407893e-05,0.0002693253627512604,3.659763024188578e-06,0.00022281784913502634,3.721407651901245,10.0,0.0,0.0,0.0,0.0,0.0,32.766,32.766,0.836,32.766,32.766,2023.1632080078125,809.5496215820312,27.196918487548828,,False,
1783647870.4525049,2026-07-09T18:44:30,23919,20260709_184425,,,,,,ground_idle,,,,,,,,,False,0.008129282854497433,0.005794788710772991,1.0000824928283691,-0.20240548253059387,-0.3907085061073303,-0.03599780797958374,-3.0,-4.0,59.0,0.0,0.0,0.0006868019117973745,0.00030765545670874417,5.690412945114076e-05,0.004028697963804007,0.0011523142457008362,4.3423591705504805e-05,0.24029366672039032,0.4595378339290619,0.01803440786898136,4.8179041186813265e-05,8.215419802581891e-05,3.505632548694848e-06,0.0002075264201266691,3.7161290645599365,10.0,0.0,0.0,0.0,0.0,0.0,32.766,32.766,0.8320000000000001,32.766,32.766,2023.1632080078125,809.5496215820312,27.196918487548828,,False,
1783647870.4626608,2026-07-09T18:44:30,23928,20260709_184425,,,,,,ground_idle,,,,,,,,,False,0.007910304702818394,0.004626688081771135,0.9986580014228821,0.18047881126403809,0.2898591160774231,-0.16725797951221466,0.0,0.0,49.0,0.0,0.0,0.0006868019117973745,0.00030765545670874417,5.690412945114076e-05,0.004028697963804007,0.0011523142457008362,4.3423591705504805e-05,0.20105242729187012,0.4209973216056824,0.01590379700064659,4.8179041186813265e-05,8.215419802581891e-05,3.505632548694848e-06,0.0002075264201266691,3.7161290645599365,10.0,0.0,0.0,0.0,0.0,0.0,32.766,32.766,0.8320000000000001,32.766,32.766,2023.1632080078125,809.5496215820312,27.196918487548828,,False,
1783647870.4728208,2026-07-09T18:44:30,23939,20260709_184425,,,,,,ground_idle,,,,,,,,,False,0.006441961973905563,0.003129174467176199,0.9985404014587402,0.045168355107307434,0.16729995608329773,0.04834061861038208,-4.0,4.0,46.0,0.0,0.0,-0.0003460807492956519,0.0013752669328823686,3.352664862177335e-05,-0.001959540881216526,0.0069651734083890915,-0.0003106672957073897,0.20105242729187012,0.4209973216056824,0.01590379700064659,4.8179041186813265e-05,8.215419802581891e-05,3.505632548694848e-06,0.0002075264201266691,3.7161290645599365,10.0,0.0,0.0,0.0,0.0,0.0,32.766,32.766,0.8320000000000001,32.766,32.766,2023.1632080078125,809.5496215820312,27.196918487548828,,False,
1783647870.4829917,2026-07-09T18:44:30,23948,20260709_184425,,,,,,ground_idle,,,,,,,,,False,0.007928167469799519,0.003374615218490362,1.0006461143493652,-0.12206238508224487,0.08696301281452179,-0.17973029613494873,0.0,-2.0,46.0,0.0,0.0,-0.0003460807492956519,0.0013752669328823686,3.352664862177335e-05,-0.001959540881216526,0.0069651734083890915,-0.0003106672957073897,0.15374188125133514,0.469817191362381,0.01597164198756218,4.8179041186813265e-05,8.215419802581891e-05,3.505632548694848e-06,0.0002075264201266691,3.7161290645599365,10.0,0.0,0.0,0.0,0.0,0.0,32.766,32.766,0.8320000000000001,32.766,32.766,2023.1632080078125,809.5496215820312,27.196918487548828,,False,
1783647870.4931464,2026-07-09T18:44:30,23961,20260709_184425,,,,,,ground_idle,,,,,,,,,False,0.008821940049529076,0.005514724645763636,0.9999775290489197,0.10148466378450394,-0.15517237782478333,0.024089030921459198,5.0,5.0,58.0,0.0,0.0,-0.0011184330796822906,5.2697421779157594e-05,4.361981700640172e-05,-0.006029090378433466,-0.0006104469648562372,-0.00023853324819356203,0.21940696239471436,0.50584477186203,0.014411241747438908,4.8179041186813265e-05,8.215419802581891e-05,3.505632548694848e-06,0.0002075264201266691,3.7161290645599365,10.0,0.0,0.0,0.0,0.0,0.0,32.766,32.766,0.8320000000000001,32.766,32.766,2023.1632080078125,809.5496215820312,27.196918487548828,,False,
1783647870.5033586,2026-07-09T18:44:30,23968,20260709_184425,,,,,,ground_idle,,,,,,,,,False,0.007521006744354963,0.00641384394839406,1.0003106594085693,-0.009215230122208595,-0.18239730596542358,0.04092350974678993,-5.0,-3.0,55.0,0.0,0.0,-0.0011184330796822906,5.2697421779157594e-05,4.361981700640172e-05,-0.006029090378433466,-0.0006104469648562372,-0.00023853324819356203,0.21940696239471436,0.50584477186203,0.014411241747438908,4.361981700640172e-05,-0.00018296160851605237,3.581136979846633e-06,0.0002115709357894957,3.721407651901245,10.0,0.0,0.0,0.0,0.0,0.0,32.766,32.766,0.8320000000000001,32.766,32.766,2023.0811767578125,809.5569458007812,27.206586837768555,,False,
1783647870.513517,2026-07-09T18:44:30,23981,20260709_184425,,,,,,ground_idle,,,,,,,,,False,0.007162850350141525,0.004218399524688721,0.998857855796814,-0.12016592919826508,0.195952370762825,0.26556429266929626,0.0,-1.0,55.0,0.0,0.0,-8.466721192235127e-05,0.0013163144467398524,5.423468246590346e-05,-0.0002181291056331247,0.00632708752527833,-0.00014631592785008252,0.16525845229625702,0.4542812407016754,0.01572006568312645,4.361981700640172e-05,-0.00018296160851605237,3.581136979846633e-06,0.0002115709357894957,3.721407651901245,10.0,0.0,0.0,0.0,0.0,0.0,32.766,32.766,0.8320000000000001,32.766,32.766,2023.0811767578125,809.5569458007812,27.206586837768555,,False,
1783647870.5236702,2026-07-09T18:44:30,23988,20260709_184425,,,,,,ground_idle,,,,,,,,,False,0.009189281612634659,0.0038835082668811083,1.0003559589385986,0.08003000169992447,0.054330386221408844,0.10382121801376343,7.0,2.0,30.0,0.0,0.0,-8.466721192235127e-05,0.0013163144467398524,5.423468246590346e-05,-0.0002181291056331247,0.00632708752527833,-0.00014631592785008252,0.16525845229625702,0.4542812407016754,0.01572006568312645,4.361981700640172e-05,-0.00018296160851605237,3.581136979846633e-06,0.0002115709357894957,3.721407651901245,10.0,0.0,0.0,0.0,0.0,0.0,32.766,32.766,0.8320000000000001,32.766,32.766,2023.0811767578125,809.5569458007812,27.206586837768555,,False,
1783647870.5338306,2026-07-09T18:44:30,24001,20260709_184425,,,,,,ground_idle,,,,,,,,,False,0.007310059387236834,0.002850209828466177,1.0012671947479248,0.13068316876888275,0.4351230263710022,-0.26111671328544617,-3.0,-2.0,27.0,0.0,0.0,-7.762794120935723e-05,0.0003078558074776083,4.5745677198283374e-05,-1.0187885891355108e-05,0.0007571850437670946,-0.00010056363680632785,0.21103377640247345,0.4491752088069916,0.015256914310157299,4.361981700640172e-05,-0.00018296160851605237,3.581136979846633e-06,0.0002115709357894957,3.721407651901245,10.0,0.0,0.0,0.0,0.0,0.0,32.766,32.766,0.8320000000000001,32.766,32.766,2023.0811767578125,809.5569458007812,27.206586837768555,,False,
1783647870.5440216,2026-07-09T18:44:30,24012,20260709_184425,,,,,,ground_idle,,,,,,,,,False,0.008838813751935959,0.003485004184767604,0.9991006851196289,0.2732076942920685,0.2810462713241577,0.06275633722543716,0.0,0.0,52.0,0.0,0.0,-7.762794120935723e-05,0.0003078558074776083,4.5745677198283374e-05,-1.0187885891355108e-05,0.0007571850437670946,-0.00010056363680632785,0.21103377640247345,0.4491752088069916,0.015256914310157299,4.465795063879341e-05,-0.00011934484064113349,3.443385821810807e-06,0.00020297840819694102,3.721407651901245,10.0,0.0,0.0,0.0,0.0,0.0,32.766,32.766,0.8320000000000001,32.766,32.766,2023.0811767578125,809.5569458007812,27.206586837768555,,False,
1783647870.554181,2026-07-09T18:44:30,24021,20260709_184425,,,,,,ground_idle,,,,,,,,,False,0.008829564787447453,0.0016972885932773352,1.0032039880752563,-0.06215641647577286,-0.09214431792497635,0.05229207128286362,-2.0,-4.0,54.0,0.0,0.0,0.0009517428115941584,0.0008264215430244803,4.426134182722308e-05,0.005692994687706232,0.0033079928252846003,1.3327548003871925e-05,0.18967238068580627,0.3959846794605255,0.015792379155755043,4.465795063879341e-05,-0.00011934484064113349,3.443385821810807e-06,0.00020297840819694102,3.7161290645599365,10.0,0.0,0.0,0.0,0.0,0.0,32.766,32.766,0.835,32.766,32.766,2023.0811767578125,809.5569458007812,27.206586837768555,,False,
1783647870.564424,2026-07-09T18:44:30,24028,20260709_184425,,,,,,ground_idle,,,,,,,,,False,0.008096522651612759,0.0022274390794336796,1.0026626586914062,-0.021215561777353287,-0.19185170531272888,0.03458460420370102,-2.0,5.0,56.0,0.0,0.0,0.0009517428115941584,0.0008264215430244803,4.426134182722308e-05,0.005692994687706232,0.0033079928252846003,1.3327548003871925e-05,0.18967238068580627,0.3959846794605255,0.015792379155755043,4.465795063879341e-05,-0.00011934484064113349,3.443385821810807e-06,0.00020297840819694102,3.7161290645599365,10.0,0.0,0.0,0.0,0.0,0.0,32.766,32.766,0.835,32.766,32.766,2023.0811767578125,809.5569458007812,27.206586837768555,,False,
1783647870.5746326,2026-07-09T18:44:30,24041,20260709_184425,,,,,,ground_idle,,,,,,,,,False,0.007021779660135508,0.004673684947192669,1.001497745513916,0.4083779454231262,0.04595750942826271,-0.03613581508398056,3.0,0.0,42.0,0.0,0.0,-0.00032991767511703074,0.0005545260501094162,4.3503485358087346e-05,-0.0012783469865098596,0.001257383730262518,0.0005623816978186369,0.20715613663196564,0.4571688771247864,0.014022777788341045,4.465795063879341e-05,-0.00011934484064113349,3.443385821810807e-06,0.00020297840819694102,3.7161290645599365,10.0,0.0,0.0,0.0,0.0,0.0,32.766,32.766,0.835,32.766,32.766,2023.0811767578125,809.5569458007812,27.206586837768555,,False,
1783647870.5848117,2026-07-09T18:44:30,24048,20260709_184425,,,,,,ground_idle,,,,,,,,,False,0.0064176395535469055,0.004634850658476353,0.9982296228408813,-0.09302995353937149,-0.10439006239175797,0.017952775582671165,-3.0,-2.0,54.0,0.0,0.0,-0.00032991767511703074,0.0005545260501094162,4.3503485358087346e-05,-0.0012783469865098596,0.001257383730262518,0.0005623816978186369,0.20715613663196564,0.4571688771247864,0.014022777788341045,4.465795063879341e-05,-0.00011934484064113349,3.443385821810807e-06,0.00020297840819694102,3.7161290645599365,10.0,0.0,0.0,0.0,0.0,0.0,32.766,32.766,0.835,32.766,32.766,2023.0811767578125,809.5569458007812,27.206586837768555,,False,
1783647870.5950463,2026-07-09T18:44:30,24062,20260709_184425,,,,,,ground_idle,,,,,,,,,False,0.006215349305421114,0.001749899354763329,0.9994257092475891,0.21541160345077515,-0.1408386379480362,-0.08233413100242615,0.0,0.0,57.0,0.0,0.0,0.00018385687144473195,0.0013533404562622309,5.4465992434415966e-05,0.0011635810369625688,0.005271188914775848,0.00041308574145659804,0.1731344610452652,0.4349903464317322,0.01379088032990694,5.4465992434415966e-05,0.00038830185076221824,3.533619292284129e-06,0.00021138407464604825,3.7161290645599365,10.0,0.0,0.0,0.0,0.0,0.0,32.766,32.766,0.835,32.766,32.766,2023.0811767578125,809.5569458007812,27.206586837768555,,False,
1783647870.6052282,2026-07-09T18:44:30,24068,20260709_184425,,,,,,ground_idle,,,,,,,,,False,0.008295911364257336,0.0024462579749524593,0.9995499849319458,-0.2312094122171402,-0.16668152809143066,-0.039928872138261795,3.0,-2.0,51.0,0.0,0.0,0.00018385687144473195,0.0013533404562622309,5.4465992434415966e-05,0.0011635810369625688,0.005271188914775848,0.00041308574145659804,0.1731344610452652,0.4349903464317322,0.01379088032990694,5.4465992434415966e-05,0.00038830185076221824,3.533619292284129e-06,0.00021138407464604825,3.721407651901245,10.0,0.0,0.0,0.0,0.0,0.0,32.766,32.766,0.835,32.766,32.766,2023.141357421875,809.5515747070312,27.215869903564453,,False,
1783647870.6154938,2026-07-09T18:44:30,24081,20260709_184425,,,,,,ground_idle,,,,,,,,,False,0.009039678610861301,0.004675176460295916,0.9997965693473816,-0.060652099549770355,0.0683746486902237,0.018213262781500816,0.0,0.0,58.0,0.0,0.0,0.0007359162555076182,0.0005732805584557354,6.711292371619493e-05,0.003964834380894899,0.0007193314377218485,0.00034238750231452286,0.20916111767292023,0.41172733902931213,0.012992022559046745,5.4465992434415966e-05,0.00038830185076221824,3.533619292284129e-06,0.00021138407464604825,3.721407651901245,10.0,0.0,0.0,0.0,0.0,0.0,32.766,32.766,0.835,32.766,32.766,2023.141357421875,809.5515747070312,27.215869903564453,,False,
1783647870.6257234,2026-07-09T18:44:30,24088,20260709_184425,,,,,,ground_idle,,,,,,,,,False,0.007924004457890987,0.005433713551610708,0.9987323880195618,0.14723996818065643,0.022765858098864555,-0.1383877843618393,-3.0,3.0,35.0,0.0,0.0,0.0007359162555076182,0.0005732805584557354,6.711292371619493e-05,0.003964834380894899,0.0007193314377218485,0.00034238750231452286,0.20916111767292023,0.41172733902931213,0.012992022559046745,5.4465992434415966e-05,0.00038830185076221824,3.533619292284129e-06,0.00021138407464604825,3.721407651901245,10.0,0.0,0.0,0.0,0.0,0.0,32.766,32.766,0.835,32.766,32.766,2023.141357421875,809.5515747070312,27.215869903564453,,False,
1783647870.6359663,2026-07-09T18:44:30,24101,20260709_184425,,,,,,ground_idle,,,,,,,,,False,0.006805133540183306,0.0034792362712323666,0.9972869157791138,0.37772348523139954,0.3302778899669647,0.18089160323143005,0.0,0.0,34.0,0.0,0.0,-9.412479994352907e-05,0.0014316861052066088,4.340643499745056e-05,-0.0005859432276338339,0.005263495724648237,-7.898926560301334e-05,0.1743553727865219,0.44903475046157837,0.01251091156154871,5.4465992434415966e-05,0.00038830185076221824,3.533619292284129e-06,0.00021138407464604825,3.721407651901245,10.0,0.0,0.0,0.0,0.0,0.0,32.766,32.766,0.835,32.766,32.766,2023.141357421875,809.5515747070312,27.215869903564453,,False,
1783647870.646187,2026-07-09T18:44:30,24113,20260709_184425,,,,,,ground_idle,,,,,,,,,False,0.009174180217087269,0.0036460580304265022,0.9982189536094666,-0.2629002034664154,0.03956184163689613,-0.007857388816773891,0.0,0.0,48.0,0.0,0.0,-9.412479994352907e-05,0.0014316861052066088,4.340643499745056e-05,-0.0005859432276338339,0.005263495724648237,-7.898926560301334e-05,0.1743553727865219,0.44903475046157837,0.01251091156154871,4.1428305848967284e-05,-0.0003278438525740057,3.419233735257876e-06,0.00020607226178981364,3.7161290645599365,10.0,0.0,0.0,0.0,0.0,0.0,32.766,32.766,0.835,32.766,32.766,2023.141357421875,809.5515747070312,27.215869903564453,,False,
1783647870.6563702,2026-07-09T18:44:30,24121,20260709_184425,,,,,,ground_idle,,,,,,,,,False,0.010139621794223785,0.004475702065974474,0.9985343813896179,0.20982839167118073,0.011971776373684406,0.01225685141980648,5.0,0.0,55.0,0.0,0.0,-9.522192704025656e-05,-1.3674887668457814e-05,4.659713522414677e-05,-0.00030852435156702995,-0.002795082749798894,-0.00045743121881969273,0.24166685342788696,0.4468677341938019,0.014189690351486206,4.1428305848967284e-05,-0.0003278438525740057,3.419233735257876e-06,0.00020607226178981364,3.7161290645599365,10.0,0.0,0.0,0.0,0.0,0.0,32.766,32.766,0.8320000000000001,32.766,32.766,2023.141357421875,809.5515747070312,27.215869903564453,,False,
1783647870.6665874,2026-07-09T18:44:30,24128,20260709_184425,,,,,,ground_idle,,,,,,,,,False,0.0067361039109528065,0.00413079047575593,1.0001702308654785,0.11006193608045578,-0.34959545731544495,-0.1450364887714386,2.0,0.0,52.0,0.0,0.0,-9.522192704025656e-05,-1.3674887668457814e-05,4.659713522414677e-05,-0.00030852435156702995,-0.002795082749798894,-0.00045743121881969273,0.24166685342788696,0.4468677341938019,0.014189690351486206,4.1428305848967284e-05,-0.0003278438525740057,3.419233735257876e-06,0.00020607226178981364,3.7161290645599365,10.0,0.0,0.0,0.0,0.0,0.0,32.766,32.766,0.8320000000000001,32.766,32.766,2023.141357421875,809.5515747070312,27.215869903564453,,False,
1783647870.6767752,2026-07-09T18:44:30,24141,20260709_184425,,,,,,ground_idle,,,,,,,,,False,0.0072226133197546005,0.004680228885263205,1.0003849267959595,0.155941903591156,0.2486579567193985,0.035188883543014526,-3.0,-3.0,33.0,0.0,0.0,0.0007456775638274848,0.0002859251690097153,2.4261682483484037e-05,0.004080974496901035,-0.0007986471173353493,-0.0005433955229818821,0.22634440660476685,0.4124946594238281,0.015392475761473179,4.1428305848967284e-05,-0.0003278438525740057,3.419233735257876e-06,0.00020607226178981364,3.7161290645599365,10.0,0.0,0.0,0.0,0.0,0.0,32.766,32.766,0.8320000000000001,32.766,32.766,2023.141357421875,809.5515747070312,27.215869903564453,,False,
1783647870.6869652,2026-07-09T18:44:30,24148,20260709_184425,,,,,,ground_idle,,,,,,,,,False,0.008647551760077477,0.0036282921209931374,1.0005160570144653,-0.11333618313074112,-0.33919310569763184,0.03267662972211838,-4.0,2.0,58.0,0.0,0.0,0.0007456775638274848,0.0002859251690097153,2.4261682483484037e-05,0.004080974496901035,-0.0007986471173353493,-0.0005433955229818821,0.22634440660476685,0.4124946594238281,0.015392475761473179,4.1428305848967284e-05,-0.0003278438525740057,3.419233735257876e-06,0.00020607226178981364,3.7161290645599365,10.0,0.0,0.0,0.0,0.0,0.0,32.766,32.766,0.8320000000000001,32.766,32.766,2023.141357421875,809.5515747070312,27.215869903564453,,False,
1783647870.69714,2026-07-09T18:44:30,24165,20260709_184425,,,,,,ground_idle,,,,,,,,,False,0.009913203306496143,0.003675186773762107,1.0002095699310303,-0.07264094799757004,0.33022862672805786,0.03802461549639702,3.0,-3.0,52.0,0.0,0.0,0.0010014339350163937,0.0005654339911416173,2.4151453544618562e-05,0.0054293605498969555,0.0005126501200720668,-0.0003730436146724969,0.21548457443714142,0.40140458941459656,0.014296155422925949,2.4151453544618562e-05,-0.0004129931330680847,3.530051344569074e-06,0.00021428016771096736,3.721407651901245,10.0,0.0,0.0,0.0,0.0,0.0,32.766,32.766,0.8320000000000001,32.766,32.766,2023.1358642578125,809.5519409179688,27.226600646972656,,False,
1783647870.7073138,2026-07-09T18:44:30,24168,20260709_184425,,,,,,ground_idle,,,,,,,,,False,0.007936060428619385,0.0019524048548191786,0.9990292191505432,0.09067434072494507,-0.19035287201404572,0.18314248323440552,-3.0,3.0,55.0,0.0,0.0,0.0010014339350163937,0.0005654339911416173,2.4151453544618562e-05,0.0054293605498969555,0.0005126501200720668,-0.0003730436146724969,0.21548457443714142,0.40140458941459656,0.014296155422925949,2.4151453544618562e-05,-0.0004129931330680847,3.530051344569074e-06,0.00021428016771096736,3.721407651901245,10.0,0.0,0.0,0.0,0.0,0.0,32.766,32.766,0.8320000000000001,32.766,32.766,2023.1358642578125,809.5519409179688,27.226600646972656,,False,
1783647870.7174838,2026-07-09T18:44:30,24181,20260709_184425,,,,,,ground_idle,,,,,,,,,False,0.007080994546413422,0.0037913674023002386,1.000413179397583,0.02888846956193447,-0.03935430943965912,0.344023734331131,2.0,-2.0,60.0,0.0,0.0,0.0006964870844967663,0.0008283157949335873,2.63679503405001e-05,0.0036427052691578865,0.0014535688096657395,-0.0004082751111127436,0.20676875114440918,0.4180188477039337,0.016480086371302605,2.4151453544618562e-05,-0.0004129931330680847,3.530051344569074e-06,0.00021428016771096736,3.721407651901245,10.0,0.0,0.0,0.0,0.0,0.0,32.766,32.766,0.8320000000000001,32.766,32.766,2023.1358642578125,809.5519409179688,27.226600646972656,,False,
1783647870.727653,2026-07-09T18:44:30,24188,20260709_184425,,,,,,ground_idle,,,,,,,,,False,0.009812730364501476,0.004260161891579628,1.0012311935424805,-0.12586848437786102,-0.4968450665473938,0.10607064515352249,2.0,4.0,30.0,0.0,0.0,0.0006964870844967663,0.0008283157949335873,2.63679503405001e-05,0.0036427052691578865,0.0014535688096657395,-0.0004082751111127436,0.20676875114440918,0.4180188477039337,0.016480086371302605,2.4151453544618562e-05,-0.0004129931330680847,3.530051344569074e-06,0.00021428016771096736,3.721407651901245,10.0,0.0,0.0,0.0,0.0,0.0,32.766,32.766,0.8320000000000001,32.766,32.766,2023.1358642578125,809.5519409179688,27.226600646972656,,False,
1783647870.7378147,2026-07-09T18:44:30,24201,20260709_184425,,,,,,ground_idle,,,,,,,,,False,0.008318311534821987,0.0037988016847521067,0.9997840523719788,-0.12361924350261688,-0.10946472734212875,-0.05480025336146355,0.0,0.0,33.0,0.0,0.0,-0.0003932210966013372,0.00028611591551452875,1.2890986909042113e-05,-0.001867601415142417,-0.0013078978518024087,-0.0002890831383410841,0.22709070146083832,0.4703599512577057,0.016081687062978745,2.4151453544618562e-05,-0.0004129931330680847,3.530051344569074e-06,0.00021428016771096736,3.721407651901245,10.0,0.0,0.0,0.0,0.0,0.0,32.766,32.766,0.8320000000000001,32.766,32.766,2023.1358642578125,809.5519409179688,27.226600646972656,,False,
1783647870.7480094,2026-07-09T18:44:30,24215,20260709_184425,,,,,,ground_idle,,,,,,,,,False,0.00906356330960989,0.004970962647348642,1.0013158321380615,0.05750581622123718,0.08351460844278336,-0.14601533114910126,-4.0,0.0,55.0,0.0,0.0,-0.0003932210966013372,0.00028611591551452875,1.2890986909042113e-05,-0.001867601415142417,-0.0013078978518024087,-0.0002890831383410841,0.22709070146083832,0.4703599512577057,0.016081687062978745,1.3399505405686796e-05,-0.0002408941654721275,3.4235358725709375e-06,0.00020420725923031569,3.7161290645599365,10.0,0.0,0.0,0.0,0.0,0.0,32.766,32.766,0.835,32.766,32.766,2023.1358642578125,809.5519409179688,27.226600646972656,,False,
1783647870.7581744,2026-07-09T18:44:30,24221,20260709_184425,,,,,,ground_idle,,,,,,,,,False,0.008610204793512821,0.004136030562222004,1.001737356185913,0.00672419648617506,0.16452473402023315,-0.06237831711769104,0.0,-1.0,52.0,0.0,0.0,-0.0001123700785683468,0.0013610409805551171,1.3368355212151073e-05,-0.00014065166760701686,0.00425573717802763,-6.26449691480957e-05,0.18415991961956024,0.4553011357784271,0.01536216214299202,1.3399505405686796e-05,-0.0002408941654721275,3.4235358725709375e-06,0.00020420725923031569,3.7161290645599365,10.0,0.0,0.0,0.0,0.0,0.0,32.766,32.766,0.835,32.766,32.766,2023.1358642578125,809.5519409179688,27.226600646972656,,False,
1783647870.768336,2026-07-09T18:44:30,24228,20260709_184425,,,,,,ground_idle,,,,,,,,,False,0.008128391578793526,0.004301181994378567,0.9989182353019714,-0.2281719595193863,-0.06998319178819656,-0.018112245947122574,2.0,-3.0,60.0,0.0,0.0,-0.0001123700785683468,0.0013610409805551171,1.3368355212151073e-05,-0.00014065166760701686,0.00425573717802763,-6.26449691480957e-05,0.18415991961956024,0.4553011357784271,0.01536216214299202,1.3399505405686796e-05,-0.0002408941654721275,3.4235358725709375e-06,0.00020420725923031569,3.7161290645599365,10.0,0.0,0.0,0.0,0.0,0.0,32.766,32.766,0.835,32.766,32.766,2023.1358642578125,809.5519409179688,27.226600646972656,,False,
1783647870.7784963,2026-07-09T18:44:30,24241,20260709_184425,,,,,,ground_idle,,,,,,,,,False,0.004832916893064976,0.00456582335755229,0.9963845014572144,0.20343945920467377,-0.23366886377334595,-0.08546686917543411,1.0,4.0,37.0,0.0,0.0,-0.00036742619704455137,0.0005550287896767259,1.3271405805426184e-05,-0.0017221139278262854,1.8899027054430917e-05,-0.0002662043261807412,0.22027598321437836,0.46461907029151917,0.015248963609337807,1.3399505405686796e-05,-0.0002408941654721275,3.4235358725709375e-06,0.00020420725923031569,3.7161290645599365,10.0,0.0,0.0,0.0,0.0,0.0,32.766,32.766,0.835,32.766,32.766,2023.1358642578125,809.5519409179688,27.226600646972656,,False,
1783647870.7886684,2026-07-09T18:44:30,24248,20260709_184425,,,,,,arming,,,,,,,,,False,0.009659507311880589,0.0027372040785849094,1.0009764432907104,-0.040084175765514374,-0.046376053243875504,-0.011586281470954418,0.0,0.0,56.0,0.0,0.0,-0.00036742619704455137,0.0005550287896767259,1.3271405805426184e-05,-0.0017221139278262854,1.8899027054430917e-05,-0.0002662043261807412,0.22027598321437836,0.46461907029151917,0.015248963609337807,1.3399505405686796e-05,-0.0002408941654721275,3.4235358725709375e-06,0.00020420725923031569,3.7161290645599365,10.0,0.0,0.0,0.0,0.0,0.0,32.766,32.766,0.835,32.766,32.766,2023.1358642578125,809.5519409179688,27.226600646972656,,False,
1783647870.7988713,2026-07-09T18:44:30,24265,20260709_184425,,,,,,arming,,,,,,,,,False,0.009028595872223377,0.002722826087847352,1.000797152519226,0.09424667805433273,-0.28634732961654663,0.20116935670375824,1.0,-1.0,57.0,0.0,0.0,-0.00010614854545565322,0.0002788320416584611,7.247683242894709e-06,-0.00011275734141236171,-0.0015445324825122952,-0.0002805331314448267,0.23204320669174194,0.45208245515823364,0.014757029712200165,7.247683242894709e-06,-0.0002733747533056885,3.530413550834055e-06,0.00021039086277596653,3.721407651901245,10.0,0.0,0.0,0.0,0.0,0.0,32.766,32.766,0.835,32.766,32.766,2023.0811767578125,809.5571899414062,27.233430862426758,,False,
1783647870.80917,2026-07-09T18:44:30,24277,20260709_184425,,,,,,arming,,,,,,,,,False,0.005027005914598703,0.0034884833730757236,0.9984734058380127,0.0817246064543724,-0.23813490569591522,0.07595665007829666,0.0,1.0,52.0,0.0,0.0,-0.00010614854545565322,0.0002788320416584611,7.247683242894709e-06,-0.00011275734141236171,-0.0015445324825122952,-0.0002805331314448267,0.23204320669174194,0.45208245515823364,0.014757029712200165,7.247683242894709e-06,-0.0002733747533056885,3.530413550834055e-06,0.00021039086277596653,3.721407651901245,10.0,0.0,0.0,0.0,0.0,0.0,32.766,32.766,0.835,32.766,32.766,2023.0811767578125,809.5571899414062,27.233430862426758,,False,
1783647870.8193529,2026-07-09T18:44:30,24287,20260709_184425,,,,,,arming,,,,,,,,,False,0.006042215507477522,0.004532292950898409,0.9991815090179443,-0.31463897228240967,-0.24049162864685059,-0.08199170976877213,4.0,-1.0,60.0,0.0,0.0,-0.00011774091399274766,-0.000770695274695754,-6.674727046629414e-07,-0.0003617345355451107,-0.0070231338031589985,-0.00022923669894225895,0.2747343182563782,0.4568876028060913,0.015536673367023468,7.247683242894709e-06,-0.0002733747533056885,3.530413550834055e-06,0.00021039086277596653,3.721407651901245,10.0,0.0,0.0,0.0,0.0,0.0,32.766,32.766,0.835,32.766,32.766,2023.0811767578125,809.5571899414062,27.233430862426758,,False,
1783647870.8295183,2026-07-09T18:44:30,24297,20260709_184425,,,,,,arming,,,,,,,,,False,0.009721721522510052,0.0022176187485456467,0.9987804293632507,0.15743419528007507,-0.029254615306854248,-0.11506278067827225,-4.0,0.0,30.0,0.0,0.0,-0.00011774091399274766,-0.000770695274695754,-6.674727046629414e-07,-0.0003617345355451107,-0.0070231338031589985,-0.00022923669894225895,0.2747343182563782,0.4568876028060913,0.015536673367023468,7.247683242894709e-06,-0.0002733747533056885,3.530413550834055e-06,0.00021039086277596653,3.721407651901245,10.0,0.0,0.0,0.0,0.0,0.0,32.766,32.766,0.835,32.766,32.766,2023.0811767578125,809.5571899414062,27.233430862426758,,False,
1783647870.839705,2026-07-09T18:44:30,24307,20260709_184425,,,,,,arming,,,,,,,,,False,0.009350660257041454,0.0026084932032972574,0.9984821081161499,0.1538679301738739,-0.28100302815437317,0.1398649662733078,3.0,0.0,28.0,0.0,0.0,-0.00011957878450630233,-0.0004692339280154556,3.1733798095956445e-06,-0.0005559158162213862,-0.005178316496312618,-0.0003653850872069597,0.2549985647201538,0.45651140809059143,0.01476365141570568,7.247683242894709e-06,-0.0002733747533056885,3.530413550834055e-06,0.00021039086277596653,3.721407651901245,10.0,0.0,0.0,0.0,0.0,0.0,32.766,32.766,0.835,32.766,32.766,2023.0811767578125,809.5571899414062,27.233430862426758,,False,
1783647870.8498805,2026-07-09T18:44:30,24313,20260709_184425,,,,,,arming,,,,,,,,,False,0.009350660257041454,0.0026084932032972574,0.9984821081161499,0.1538679301738739,-0.28100302815437317,0.1398649662733078,-3.0,-3.0,55.0,0.0,0.0,-0.00011957878450630233,-0.0004692339280154556,3.1733798095956445e-06,-0.0005559158162213862,-0.005178316496312618,-0.0003653850872069597,0.2549985647201538,0.45651140809059143,0.01476365141570568,6.11559153185226e-06,-0.0005102513241581619,3.419544100324856e-06,0.0002027870068559423,3.7161290645599365,10.0,0.0,7000.0,7000.0,7000.0,7000.0,32.766,32.766,0.835,32.766,32.766,2023.0811767578125,809.5571899414062,27.233430862426758,,False,
1783647870.8603399,2026-07-09T18:44:30,24327,20260709_184425,,,,,,arming,,,,,,,,,False,0.009790362790226936,0.0028445469215512276,1.002052664756775,-0.016230512410402298,-0.35979512333869934,-0.04648619517683983,0.0,2.0,55.0,0.0,0.0,0.00013355772534850985,0.0003051648964174092,3.692971404234413e-06,0.0010210801847279072,-0.0012415070086717606,-0.0005346077377907932,0.22080372273921967,0.4494369924068451,0.014106784015893936,6.11559153185226e-06,-0.0005102513241581619,3.419544100324856e-06,0.0002027870068559423,3.7161290645599365,10.0,0.0,7000.0,7000.0,7000.0,7000.0,32.766,32.766,0.8310000000000001,32.766,32.766,2023.0811767578125,809.5571899414062,27.233430862426758,,False,
1783647870.8706038,2026-07-09T18:44:30,24338,20260709_184425,,,,,,arming,,,,,,,,,False,0.008369054645299911,0.0023710913956165314,1.0032670497894287,0.1414182335138321,0.048325009644031525,0.007412669714540243,0.0,-2.0,56.0,0.0,0.0,0.00013355772534850985,0.0003051648964174092,3.692971404234413e-06,0.0010210801847279072,-0.0012415070086717606,-0.0005346077377907932,0.22080372273921967,0.4494369924068451,0.014106784015893936,6.11559153185226e-06,-0.0005102513241581619,3.419544100324856e-06,0.0002027870068559423,3.7161290645599365,10.0,0.0,7000.0,7000.0,7000.0,7000.0,32.766,32.766,0.8310000000000001,32.766,32.766,2023.0811767578125,809.5571899414062,27.233430862426758,,False,
1783647870.8808181,2026-07-09T18:44:30,24348,20260709_184425,,,,,,arming,,,,,,,,,False,0.00832363497465849,0.001879432937130332,0.9996356964111328,-0.042515963315963745,0.033307693898677826,-0.07945441454648972,0.0,0.0,52.0,0.0,0.0,0.0006683490937575698,0.0002897674567066133,-3.970395482610911e-06,0.004050477873533964,-0.001470329356379807,-0.00014887140423525125,0.22088979184627533,0.4281218647956848,0.012051109224557877,6.11559153185226e-06,-0.0005102513241581619,3.419544100324856e-06,0.0002027870068559423,3.7161290645599365,10.0,0.0,7000.0,7000.0,7000.0,7000.0,32.766,32.766,0.8310000000000001,32.766,32.766,2023.0811767578125,809.5571899414062,27.233430862426758,,False,
1783647870.8910496,2026-07-09T18:44:30,24358,20260709_184425,,,,,,arming,,,,,,,,,False,0.008169109001755714,0.004428515676409006,0.9998635053634644,-0.02223118208348751,0.11753322184085846,0.32916948199272156,4.0,2.0,53.0,0.0,0.0,0.0006683490937575698,0.0002897674567066133,-3.970395482610911e-06,0.004050477873533964,-0.001470329356379807,-0.00014887140423525125,0.22088979184627533,0.4281218647956848,0.012051109224557877,6.11559153185226e-06,-0.0005102513241581619,3.419544100324856e-06,0.0002027870068559423,3.7161290645599365,10.0,0.0,7000.0,7000.0,7000.0,7000.0,32.766,32.766,0.8310000000000001,32.766,32.766,2023.0811767578125,809.5571899414062,27.233430862426758,,False,
1783647870.901243,2026-07-09T18:44:30,24368,20260709_184425,,,,,,arming,,,,,,,,,False,0.009089776314795017,0.003389211604371667,1.0018017292022705,-0.03942527994513512,0.07389029115438461,0.2236284762620926,-3.0,1.0,56.0,0.0,0.0,0.0001535536430310458,-0.0008079646504484117,-4.499611350183841e-06,0.0011843459215015173,-0.007232946809381247,-6.42227751086466e-05,0.2661268413066864,0.4516696035861969,0.013436704874038696,-4.499611350183841e-06,-3.9946287870407104e-05,3.52348047272244e-06,0.00020941234834026545,3.721407651901245,10.0,0.0,7000.0,7000.0,7000.0,7000.0,32.766,32.766,0.8310000000000001,32.766,32.766,2023.125,809.5532836914062,27.24374008178711,,False,
1783647870.9114234,2026-07-09T18:44:30,24379,20260709_184425,,,,,,arming,,,,,,,,,False,0.00795567687600851,0.0030476138927042484,1.0008885860443115,0.31337687373161316,0.37247633934020996,-0.17128171026706696,-2.0,-4.0,53.0,0.0,0.0,0.0009481583838351071,0.0005519744008779526,1.112753579946002e-05,0.00524262385442853,0.0001455022720620036,0.0002797379856929183,0.2661268413066864,0.4516696035861969,0.013436704874038696,-4.499611350183841e-06,-3.9946287870407104e-05,3.52348047272244e-06,0.00020941234834026545,3.721407651901245,10.0,0.0,7000.0,7000.0,7000.0,7000.0,32.766,32.766,0.8310000000000001,32.766,32.766,2023.125,809.5532836914062,27.24374008178711,,False,
1783647870.9215941,2026-07-09T18:44:30,24388,20260709_184425,,,,,,arming,,,,,,,,,False,0.007899083197116852,0.0031515327282249928,0.9968500733375549,-0.1984696239233017,-0.17541515827178955,-0.1012101024389267,1.0,3.0,36.0,0.0,0.0,0.0009481583838351071,0.0005519744008779526,1.112753579946002e-05,0.00524262385442853,0.0001455022720620036,0.0002797379856929183,0.20480956137180328,0.41553738713264465,0.012934987433254719,-4.499611350183841e-06,-3.9946287870407104e-05,3.52348047272244e-06,0.00020941234834026545,3.721407651901245,10.0,0.0,7000.0,7000.0,7000.0,7000.0,32.766,32.766,0.8310000000000001,32.766,32.766,2023.125,809.5532836914062,27.24374008178711,,False,
1783647870.931759,2026-07-09T18:44:30,24399,20260709_184425,,,,,,arming,,,,,,,,,False,0.006965432781726122,0.0030683393124490976,0.9991673231124878,-0.021509161219000816,0.13958562910556793,0.008863535709679127,1.0,2.0,35.0,0.0,0.0,-0.0003657066554296762,3.3849646570160985e-05,1.1939915566472337e-05,-0.0017503970302641392,-0.0025592022575438023,-4.5090302592143416e-05,0.20480956137180328,0.41553738713264465,0.012934987433254719,-4.499611350183841e-06,-3.9946287870407104e-05,3.52348047272244e-06,0.00020941234834026545,3.721407651901245,10.0,0.0,7000.0,7000.0,7000.0,7000.0,32.766,32.766,0.8310000000000001,32.766,32.766,2023.125,809.5532836914062,27.24374008178711,,False,
1783647870.9419894,2026-07-09T18:44:30,24408,20260709_184425,,,,,,arming,,,,,,,,,False,0.00987673457711935,0.0036108039785176516,0.9987778067588806,0.0524127222597599,-0.2659331262111664,0.10989656299352646,-5.0,-2.0,52.0,0.0,0.0,-0.0003657066554296762,3.3849646570160985e-05,1.1939915566472337e-05,-0.0017503970302641392,-0.0025592022575438023,-4.5090302592143416e-05,0.22542087733745575,0.4737550616264343,0.012147581204771996,-4.499611350183841e-06,-3.9946287870407104e-05,3.52348047272244e-06,0.00020941234834026545,3.721407651901245,10.0,0.0,7000.0,7000.0,7000.0,7000.0,32.766,32.766,0.8310000000000001,32.766,32.766,2023.125,809.5532836914062,27.24374008178711,,False,
1783647870.9521668,2026-07-09T18:44:30,24419,20260709_184425,,,,,,arming,,,,,,,,,False,0.006266620010137558,0.004207045305520296,0.9997784495353699,-0.18003077805042267,-0.01168043352663517,0.3301282823085785,2.0,-3.0,63.0,0.0,0.0,0.0008909744792617857,0.0008021407993510365,1.8895267203333788e-05,0.004856623709201813,0.0013226306764408946,-0.00019558536587283015,0.22542087733745575,0.4737550616264343,0.012147581204771996,1.662312752159778e-05,-0.00016382682952098548,3.4109270927729085e-06,0.00020054510969202965,3.695014715194702,10.0,0.0,7000.0,7000.0,7000.0,7000.0,32.766,32.766,0.8300000000000001,32.766,32.766,2023.125,809.5532836914062,27.24374008178711,,False,
1783647870.9623244,2026-07-09T18:44:30,24428,20260709_184425,,,,,,arming,,,,,,,,,False,0.005802084691822529,0.0031534929294139147,0.998314380645752,-0.04515601694583893,0.03486024960875511,0.5529621839523315,3.0,5.0,56.0,0.0,0.0,0.0008909744792617857,0.0008021407993510365,1.8895267203333788e-05,0.004856623709201813,0.0013226306764408946,-0.00019558536587283015,0.19216257333755493,0.42158764600753784,0.015456694178283215,1.662312752159778e-05,-0.00016382682952098548,3.4109270927729085e-06,0.00020054510969202965,3.695014715194702,10.0,0.0,7000.0,7000.0,7000.0,7000.0,32.766,32.766,0.8300000000000001,32.766,32.766,2023.125,809.5532836914062,27.24374008178711,,False,
1783647870.9724817,2026-07-09T18:44:30,24439,20260709_184425,,,,,,arming,,,,,,,,,False,0.006914075464010239,0.0020655703265219927,0.9989237785339355,-0.10986083745956421,-0.026017295196652412,-0.3626403212547302,-1.0,-1.0,55.0,0.0,0.0,-0.00011275555152678862,0.0003106471267528832,1.4920267858542502e-05,-0.000905147404409945,-0.001106870244257152,-0.00044869445264339447,0.19216257333755493,0.42158764600753784,0.015456694178283215,1.662312752159778e-05,-0.00016382682952098548,3.4109270927729085e-06,0.00020054510969202965,3.695014715194702,10.0,0.0,7000.0,7000.0,7000.0,7000.0,32.766,32.766,0.8300000000000001,32.766,32.766,2023.125,809.5532836914062,27.24374008178711,,False,
1783647870.9826453,2026-07-09T18:44:30,24448,20260709_184425,,,,,,arming,,,,,,,,,False,0.008725177496671677,0.0012391313211992383,0.9983627796173096,0.1803290694952011,0.02342541329562664,-0.25061941146850586,-1.0,-1.0,57.0,0.0,0.0,-0.00011275555152678862,0.0003106471267528832,1.4920267858542502e-05,-0.000905147404409945,-0.001106870244257152,-0.00044869445264339447,0.20974744856357574,0.46376532316207886,0.017174120992422104,1.662312752159778e-05,-0.00016382682952098548,3.4109270927729085e-06,0.00020054510969202965,3.695014715194702,10.0,0.0,7000.0,7000.0,7000.0,7000.0,32.766,32.766,0.8300000000000001,32.766,32.766,2023.125,809.5532836914062,27.24374008178711,,False,
1783647870.992804,2026-07-09T18:44:30,24459,20260709_184425,,,,,,arming,,,,,,,,,False,0.010635722428560257,0.003497243160381913,0.9977876543998718,0.13939054310321808,0.2716151475906372,-0.4570425748825073,-3.0,1.0,55.0,0.0,0.0,-0.00010438683966640383,0.001269143307581544,4.936779077979736e-06,-0.0006881433655507863,0.0037014023400843143,-0.0006566339870914817,0.20974744856357574,0.46376532316207886,0.017174120992422104,1.662312752159778e-05,-0.00016382682952098548,3.4109270927729085e-06,0.00020054510969202965,3.695014715194702,10.0,0.0,7000.0,7000.0,7000.0,7000.0,32.766,32.766,0.8300000000000001,32.766,32.766,2023.125,809.5532836914062,27.24374008178711,,False,
1783647871.0030177,2026-07-09T18:44:31,24468,20260709_184425,,,,,,arming,,,,,,,,,False,0.008324196562170982,0.00205785920843482,1.0008065700531006,-0.21335266530513763,-1.073113203048706,-0.04271150007843971,4.0,0.0,52.0,0.0,0.0,-0.00010438683966640383,0.001269143307581544,4.936779077979736e-06,-0.0006881433655507863,0.0037014023400843143,-0.0006566339870914817,0.17189764976501465,0.46154364943504333,0.013855447061359882,4.936779077979736e-06,-0.0006621804204769433,3.5120663142151898e-06,0.00020783311629202217,3.695014715194702,10.0,0.0,7000.0,7000.0,7000.0,7000.0,32.766,32.766,0.8300000000000001,32.766,32.766,2023.092041015625,809.5562133789062,27.254362106323242,,False,
1783647871.013193,2026-07-09T18:44:31,24481,20260709_184425,,,,,,arming,,,,,,,,,False,0.007466187234967947,0.002509333426132798,1.0033894777297974,-0.09581544995307922,0.20009315013885498,-0.07148473709821701,0.0,0.0,58.0,0.0,0.0,-0.00011966853344347328,0.00029930376331321895,-2.4423816284979694e-06,-0.0006060060695745051,-0.0013351549860090017,-0.0006495165871456265,0.21123257279396057,0.4654901325702667,0.014749245718121529,4.936779077979736e-06,-0.0006621804204769433,3.5120663142151898e-06,0.00020783311629202217,3.695014715194702,10.0,0.0,7000.0,7000.0,7000.0,7000.0,32.766,32.766,0.8300000000000001,32.766,32.766,2023.092041015625,809.5562133789062,27.254362106323242,,False,
1783647871.0233607,2026-07-09T18:44:31,24488,20260709_184425,,,,,,arming,,,,,,,,,False,0.0077124848030507565,0.0028963314834982157,1.0037782192230225,0.14135418832302094,0.7628270983695984,0.13137978315353394,-4.0,0.0,32.0,0.0,0.0,-0.00011966853344347328,0.00029930376331321895,-2.4423816284979694e-06,-0.0006060060695745051,-0.0013351549860090017,-0.0006495165871456265,0.21123257279396057,0.4654901325702667,0.014749245718121529,4.936779077979736e-06,-0.0006621804204769433,3.5120663142151898e-06,0.00020783311629202217,3.695014715194702,10.0,0.0,7000.0,7000.0,7000.0,7000.0,32.766,32.766,0.8300000000000001,32.766,32.766,2023.092041015625,809.5562133789062,27.254362106323242,,False,
1783647871.033529,2026-07-09T18:44:31,24501,20260709_184425,,,,,,arming,,,,,,,,,False,0.008024965412914753,0.005132425110787153,1.0006743669509888,0.004134210757911205,0.17249922454357147,0.19474726915359497,3.0,1.0,32.0,0.0,0.0,-0.00033368845470249653,0.0005448878509923816,-1.918767338793259e-06,-0.0017035938799381256,-0.00020309923274908215,-0.00022594550682697445,0.20230284333229065,0.46050214767456055,0.021117649972438812,4.936779077979736e-06,-0.0006621804204769433,3.5120663142151898e-06,0.00020783311629202217,3.695014715194702,10.0,0.0,7000.0,7000.0,7000.0,7000.0,32.766,32.766,0.8300000000000001,32.766,32.766,2023.092041015625,809.5562133789062,27.254362106323242,,False,
1783647871.0436969,2026-07-09T18:44:31,24508,20260709_184425,,,,,,arming,,,,,,,,,False,0.008489367552101612,0.0025157493073493242,0.9994106292724609,-0.18453815579414368,0.4952506721019745,-0.1710493564605713,1.0,0.0,56.0,0.0,0.0,-0.00033368845470249653,0.0005448878509923816,-1.918767338793259e-06,-0.0017035938799381256,-0.00020309923274908215,-0.00022594550682697445,0.20230284333229065,0.46050214767456055,0.021117649972438812,4.936779077979736e-06,-0.0006621804204769433,3.5120663142151898e-06,0.00020783311629202217,3.695014715194702,10.0,0.0,7000.0,7000.0,7000.0,7000.0,32.766,32.766,0.8300000000000001,32.766,32.766,2023.092041015625,809.5562133789062,27.254362106323242,,False,
1783647871.0538607,2026-07-09T18:44:31,24521,20260709_184425,,,,,,arming,,,,,,,,,False,0.0075180078856647015,0.004560872446745634,0.997624397277832,0.17226040363311768,0.0033886462915688753,-0.129434272646904,-4.0,-2.0,52.0,0.0,0.0,0.0001584801502758637,0.0012716313358396292,-1.404337467647565e-06,0.0009731033933348954,0.0037579364143311977,-0.00021335743076633662,0.1686582863330841,0.436625599861145,0.019592901691794395,-3.716419087140821e-06,-0.00010685921733966097,3.4012452942988602e-06,0.00019967918342445046,3.6897361278533936,10.0,0.0,7000.0,7000.0,7000.0,7000.0,32.766,32.766,0.835,32.766,32.766,2023.092041015625,809.5562133789062,27.254362106323242,,False,
1783647871.06405,2026-07-09T18:44:31,24528,20260709_184425,,,,,,arming,,,,,,,,,False,0.007444610819220543,0.004625906702131033,0.9992297887802124,-0.1473003476858139,0.09688465297222137,-0.05334553122520447,7.0,1.0,59.0,0.0,0.0,0.0001584801502758637,0.0012716313358396292,-1.404337467647565e-06,0.0009731033933348954,0.0037579364143311977,-0.00021335743076633662,0.1686582863330841,0.436625599861145,0.019592901691794395,-3.716419087140821e-06,-0.00010685921733966097,3.4012452942988602e-06,0.00019967918342445046,3.6897361278533936,10.0,0.0,7000.0,7000.0,7000.0,7000.0,32.766,32.766,0.835,32.766,32.766,2023.092041015625,809.5562133789062,27.254362106323242,,False,
1783647871.0742142,2026-07-09T18:44:31,24541,20260709_184425,,,,,,arming,,,,,,,,,False,0.010076086968183517,0.0023891550954431295,0.998873770236969,0.01592392288148403,0.12168708443641663,-0.27800023555755615,-4.0,-4.0,56.0,0.0,0.0,0.0008648891816847026,0.0005556604592129588,7.797965736244805e-06,0.004628111142665148,0.00028251518961042166,-0.0004995244671590626,0.1965024471282959,0.4061528146266937,0.020554471760988235,-3.716419087140821e-06,-0.00010685921733966097,3.4012452942988602e-06,0.00019967918342445046,3.6897361278533936,10.0,0.0,7000.0,7000.0,7000.0,7000.0,32.766,32.766,0.835,32.766,32.766,2023.092041015625,809.5562133789062,27.254362106323242,,False,
1783647871.0843732,2026-07-09T18:44:31,24548,20260709_184425,,,,,,arming,,,,,,,,,False,0.006623084656894207,0.005933533888310194,1.0017141103744507,0.16836422681808472,-0.2562389075756073,-0.40114912390708923,0.0,0.0,59.0,0.0,0.0,0.0008648891816847026,0.0005556604592129588,7.797965736244805e-06,0.004628111142665148,0.00028251518961042166,-0.0004995244671590626,0.1965024471282959,0.4061528146266937,0.020554471760988235,-3.716419087140821e-06,-0.00010685921733966097,3.4012452942988602e-06,0.00019967918342445046,3.6897361278533936,10.0,0.0,7000.0,7000.0,7000.0,7000.0,32.766,32.766,0.835,32.766,32.766,2023.092041015625,809.5562133789062,27.254362106323242,,False,
1783647871.0945308,2026-07-09T18:44:31,24561,20260709_184425,,,,,,arming,,,,,,,,,False,0.0021640053018927574,0.0040895165875554085,0.9989194273948669,-0.2366526573896408,-0.16657565534114838,-0.16952994465827942,-1.0,0.0,52.0,0.0,0.0,2.2195165172433917e-07,3.5589841900218744e-06,4.1658495320007205e-08,0.00013456525630317628,0.00124254054389894,2.777187000901904e-05,-0.0004189714672975242,0.00020396561012603343,-0.00042259288602508605,-3.716419087140821e-06,-0.00010685921733966097,3.4012452942988602e-06,0.00019967918342445046,3.6897361278533936,10.0,0.0,7000.0,7000.0,7000.0,7000.0,32.766,32.766,0.835,32.766,32.766,2023.092041015625,809.5562133789062,27.254362106323242,,False,
1783647871.104698,2026-07-09T18:44:31,24568,20260709_184425,,,,,,arming,,,,,,,,,False,0.009005893021821976,0.0010627793380990624,0.9968950748443604,0.1831529438495636,-0.03666752949357033,-0.39128851890563965,0.0,0.0,57.0,0.0,0.0,2.2195165172433917e-07,3.5589841900218744e-06,4.1658495320007205e-08,0.00013456525630317628,0.00124254054389894,2.777187000901904e-05,-0.0004189714672975242,0.00020396561012603343,-0.00042259288602508605,4.1658495320007205e-08,2.778053385554813e-05,1.0,0.00010699999984353781,3.7055718898773193,10.0,0.0,7000.0,7000.0,7000.0,7000.0,32.766,32.766,0.835,32.766,32.766,2023.1085205078125,809.5546875,27.26201629638672,,False,
1783647871.1148577,2026-07-09T18:44:31,24581,20260709_184425,,,,,,arming,,,,,,,,,False,0.008445119485259056,0.002913186326622963,0.9983199238777161,0.11775778979063034,0.214877188205719,-0.3419583737850189,-2.0,4.0,57.0,0.0,0.0,-8.936652011470869e-05,7.755187107250094e-05,0.06738072633743286,-0.003362624440342188,0.0036764265969395638,-9.646879334468395e-05,-0.011672334745526314,0.035688940435647964,-0.0016690156189724803,4.1658495320007205e-08,2.778053385554813e-05,1.0,0.00010699999984353781,3.7055718898773193,10.0,0.0,7000.0,7000.0,7000.0,7000.0,32.766,32.766,0.835,32.766,32.766,2023.1085205078125,809.5546875,27.26201629638672,,False,
1783647871.1250947,2026-07-09T18:44:31,24588,20260709_184425,,,,,,arming,,,,,,,,,False,0.008554219268262386,0.005505646113306284,1.0006812810897827,-0.11585604399442673,-0.6008791923522949,0.6064042448997498,5.0,1.0,32.0,0.0,0.0,-8.936652011470869e-05,7.755187107250094e-05,0.06738072633743286,-0.003362624440342188,0.0036764265969395638,-9.646879334468395e-05,-0.011672334745526314,0.035688940435647964,-0.0016690156189724803,4.1658495320007205e-08,2.778053385554813e-05,1.0,0.00010699999984353781,3.7055718898773193,10.0,0.0,7000.0,7000.0,7000.0,7000.0,32.766,32.766,0.835,32.766,32.766,2023.1085205078125,809.5546875,27.26201629638672,,False,
1783647871.1352928,2026-07-09T18:44:31,24601,20260709_184425,,,,,,arming,,,,,,,,,False,0.005861511453986168,0.0010180145036429167,1.0031890869140625,0.272047221660614,0.027971411123871803,0.3588978946208954,-1.0,-1.0,32.0,0.0,0.0,-0.0001262844743905589,-2.9726616048719734e-05,1.4211795132723637e-05,-0.0014281428884714842,-0.00020135537488386035,-0.00018666114192456007,0.0353250615298748,0.025091536343097687,0.000848888186737895,4.1658495320007205e-08,2.778053385554813e-05,1.0,0.00010699999984353781,3.7055718898773193,10.0,0.0,7000.0,7000.0,7000.0,7000.0,32.766,32.766,0.835,32.766,32.766,2023.1085205078125,809.5546875,27.26201629638672,,False,
1783647871.1454704,2026-07-09T18:44:31,24613,20260709_184425,,,,,,arming,,,,,,,,,False,0.007670796010643244,0.0020896894857287407,1.0024714469909668,-0.13659343123435974,0.0889008417725563,0.11890158802270889,0.0,-3.0,59.0,0.0,0.0,-0.0001262844743905589,-2.9726616048719734e-05,1.4211795132723637e-05,-0.0014281428884714842,-0.00020135537488386035,-0.00018666114192456007,0.0353250615298748,0.025091536343097687,0.000848888186737895,1.494013486080803e-05,-0.00014122395077720284,6.317699899227591e-06,0.00015999976312741637,3.7055718898773193,10.0,0.0,7000.0,7000.0,7000.0,7000.0,32.766,32.766,0.835,32.766,32.766,2023.1085205078125,809.5546875,27.26201629638672,,False,
1783647871.1556342,2026-07-09T18:44:31,24621,20260709_184425,,,,,,arming,,,,,,,,,False,0.012097573839128017,0.003235917305573821,0.9947376847267151,0.010097009129822254,0.09286805242300034,0.030760129913687706,0.0,2.0,51.0,0.0,0.0,-6.775760266464204e-05,-2.9154529329389334e-05,1.7609743736102246e-05,0.0016611849423497915,3.533810377120972e-05,-0.0004891565768048167,0.034154679626226425,0.013151551596820354,0.004083852283656597,1.494013486080803e-05,-0.00014122395077720284,6.317699899227591e-06,0.00015999976312741637,3.7055718898773193,10.0,0.0,7000.0,7000.0,7000.0,7000.0,32.766,32.766,0.836,32.766,32.766,2023.1085205078125,809.5546875,27.26201629638672,,False,
1783647871.1657984,2026-07-09T18:44:31,24628,20260709_184425,,,,,,arming,,,,,,,,,False,0.014632342383265495,0.0021869682241231203,0.995347261428833,-0.09118334203958511,-0.16524842381477356,0.22721216082572937,0.0,2.0,55.0,0.0,0.0,-6.775760266464204e-05,-2.9154529329389334e-05,1.7609743736102246e-05,0.0016611849423497915,3.533810377120972e-05,-0.0004891565768048167,0.034154679626226425,0.013151551596820354,0.004083852283656597,1.494013486080803e-05,-0.00014122395077720284,6.317699899227591e-06,0.00015999976312741637,3.7055718898773193,10.0,0.0,7000.0,7000.0,7000.0,7000.0,32.766,32.766,0.836,32.766,32.766,2023.1085205078125,809.5546875,27.26201629638672,,False,
1783647871.1759949,2026-07-09T18:44:31,24641,20260709_184425,,,,,,arming,,,,,,,,,False,0.005538330879062414,0.009139166213572025,0.9939899444580078,-0.048121728003025055,-0.08146742731332779,-0.11810436099767685,-2.0,-5.0,55.0,0.0,0.0,0.00023115862859413028,0.00015385070582851768,1.267967491003219e-06,0.007700471673160791,0.0038742327596992254,-0.0006822770810686052,-0.04143334925174713,-0.10203370451927185,0.0011827964335680008,1.494013486080803e-05,-0.00014122395077720284,6.317699899227591e-06,0.00015999976312741637,3.7055718898773193,10.0,0.0,7000.0,7000.0,7000.0,7000.0,32.766,32.766,0.836,32.766,32.766,2023.1085205078125,809.5546875,27.26201629638672,,False,
1783647871.1861632,2026-07-09T18:44:31,24648,20260709_184425,,,,,,arming,,,,,,,,,False,0.008764496073126793,-0.0002640079183038324,1.0011472702026367,0.07676263898611069,-0.20362886786460876,0.025091925635933876,1.0,0.0,56.0,0.0,0.0,0.00023115862859413028,0.00015385070582851768,1.267967491003219e-06,0.007700471673160791,0.0038742327596992254,-0.0006822770810686052,-0.04143334925174713,-0.10203370451927185,0.0011827964335680008,1.494013486080803e-05,-0.00014122395077720284,6.317699899227591e-06,0.00015999976312741637,3.7055718898773193,10.0,0.0,7000.0,7000.0,7000.0,7000.0,32.766,32.766,0.836,32.766,32.766,2023.1085205078125,809.5546875,27.26201629638672,,False,
1783647871.196365,2026-07-09T18:44:31,24663,20260709_184425,,,,,,arming,,,,,,,,,False,0.00769230630248785,0.011318767443299294,1.0052571296691895,-0.1465579867362976,-0.4009343385696411,-0.044294461607933044,0.0,6.0,54.0,0.0,0.0,-0.0003342925338074565,8.996445103548467e-05,9.439874702366069e-06,-0.0010825037024915218,0.0025884679052978754,-0.0006099566235207021,0.012427196837961674,0.20020145177841187,0.0012168051907792687,9.439874702366069e-06,-0.0006067331996746361,3.5538801057555247e-06,0.00021370971808210015,3.710850477218628,10.0,0.0,7000.0,7000.0,7000.0,7000.0,32.766,32.766,0.836,32.766,32.766,2023.1085205078125,809.5546875,27.26201629638672,,False,
1783647871.206527,2026-07-09T18:44:31,24668,20260709_184425,,,,,,arming,,,,,,,,,False,0.012169206514954567,0.0040641361847519875,1.0018806457519531,0.025013761594891548,0.4758945107460022,0.3660459816455841,1.0,2.0,54.0,0.0,0.0,-0.0003342925338074565,8.996445103548467e-05,9.439874702366069e-06,-0.0010825037024915218,0.0025884679052978754,-0.0006099566235207021,0.012427196837961674,0.20020145177841187,0.0012168051907792687,9.439874702366069e-06,-0.0006067331996746361,3.5538801057555247e-06,0.00021370971808210015,3.710850477218628,10.0,0.0,7000.0,7000.0,7000.0,7000.0,32.766,32.766,0.836,32.766,32.766,2022.9827880859375,809.565673828125,27.271921157836914,,False,
1783647871.216687,2026-07-09T18:44:31,24681,20260709_184425,,,,,,arming,,,,,,,,,False,0.007860580459237099,-0.0009667100966908038,0.9976188540458679,0.06132806837558746,0.236798956990242,0.15369555354118347,0.0,-4.0,53.0,0.0,0.0,-5.9955058532068506e-05,-6.928446964593604e-06,3.156764250888955e-06,0.00427149748429656,0.0014675887068733573,-0.0007056256872601807,0.06468281894922256,0.08461713790893555,0.002275576116517186,9.439874702366069e-06,-0.0006067331996746361,3.5538801057555247e-06,0.00021370971808210015,3.710850477218628,10.0,0.0,7000.0,7000.0,7000.0,7000.0,32.766,32.766,0.836,32.766,32.766,2022.9827880859375,809.565673828125,27.271921157836914,,False,
1783647871.226857,2026-07-09T18:44:31,24688,20260709_184425,,,,,,arming,,,,,,,,,False,0.010472871363162994,0.004517984110862017,0.9963908195495605,0.018717849627137184,0.4538964629173279,-0.10076969116926193,4.0,0.0,31.0,0.0,0.0,-5.9955058532068506e-05,-6.928446964593604e-06,3.156764250888955e-06,0.00427149748429656,0.0014675887068733573,-0.0007056256872601807,0.06468281894922256,0.08461713790893555,0.002275576116517186,9.439874702366069e-06,-0.0006067331996746361,3.5538801057555247e-06,0.00021370971808210015,3.710850477218628,10.0,0.0,7000.0,7000.0,7000.0,7000.0,32.766,32.766,0.836,32.766,32.766,2022.9827880859375,809.565673828125,27.271921157836914,,False,
1783647871.237072,2026-07-09T18:44:31,24701,20260709_184425,,,,,,arming,,,,,,,,,False,0.00539036700502038,0.0046800728887319565,1.0003893375396729,0.010180947370827198,-0.38054904341697693,0.05918438360095024,-3.0,0.0,29.0,0.0,0.0,-2.9826987884007394e-05,-0.00013186557043809444,-2.8186759664095007e-06,0.004754319321364164,0.00015376914234366268,-0.0007030859705992043,0.10355572402477264,0.10760629177093506,0.0034586971160024405,9.439874702366069e-06,-0.0006067331996746361,3.5538801057555247e-06,0.00021370971808210015,3.710850477218628,10.0,0.0,7000.0,7000.0,7000.0,7000.0,32.766,32.766,0.836,32.766,32.766,2022.9827880859375,809.565673828125,27.271921157836914,,False,
1783647871.2472525,2026-07-09T18:44:31,24715,20260709_184425,,,,,,arming,,,,,,,,,False,0.011140763759613037,0.007013413123786449,1.0007214546203613,-0.024400079622864723,0.1584056317806244,0.41111722588539124,-1.0,-3.0,57.0,0.0,0.0,-2.9826987884007394e-05,-0.00013186557043809444,-2.8186759664095007e-06,0.004754319321364164,0.00015376914234366268,-0.0007030859705992043,0.10355572402477264,0.10760629177093506,0.0034586971160024405,-1.3077960829832591e-05,-0.0006973264971747994,3.0212650017347187e-06,0.00024247076362371445,3.7055718898773193,10.0,0.0,7000.0,7000.0,7000.0,7000.0,32.766,32.766,0.835,32.766,32.766,2022.9827880859375,809.565673828125,27.271921157836914,,False,
1783647871.257482,2026-07-09T18:44:31,24721,20260709_184425,,,,,,arming,,,,,,,,,False,0.012570011429488659,-0.003095870139077306,1.005585789680481,0.35590043663978577,-0.4178360104560852,0.12177933007478714,0.0,2.0,52.0,0.0,0.0,0.00014953123172745109,2.817315180436708e-05,-1.0927806215477176e-05,0.006784945260733366,0.001942265429534018,-0.0005822491366416216,0.05887012928724289,0.09626714140176773,0.005219019949436188,-1.3077960829832591e-05,-0.0006973264971747994,3.0212650017347187e-06,0.00024247076362371445,3.7055718898773193,10.0,0.0,7000.0,7000.0,7000.0,7000.0,32.766,32.766,0.835,32.766,32.766,2022.9827880859375,809.565673828125,27.271921157836914,,False,
1783647871.2676804,2026-07-09T18:44:31,24728,20260709_184425,,,,,,arming,,,,,,,,,False,0.006945281755179167,0.002802325179800391,1.0018354654312134,0.10595104843378067,-0.6550480723381042,0.13394173979759216,0.0,0.0,59.0,0.0,0.0,0.00014953123172745109,2.817315180436708e-05,-1.0927806215477176e-05,0.006784945260733366,0.001942265429534018,-0.0005822491366416216,0.05887012928724289,0.09626714140176773,0.005219019949436188,-1.3077960829832591e-05,-0.0006973264971747994,3.0212650017347187e-06,0.00024247076362371445,3.7055718898773193,10.0,0.0,7000.0,7000.0,7000.0,7000.0,32.766,32.766,0.835,32.766,32.766,2022.9827880859375,809.565673828125,27.271921157836914,,False,
1783647871.2778883,2026-07-09T18:44:31,24741,20260709_184425,,,,,,arming,,,,,,,,,False,0.008165346458554268,0.0013632371556013823,0.9975602626800537,-0.2696196436882019,0.2741198241710663,0.3438274562358856,0.0,1.0,55.0,0.0,0.0,3.558888420229778e-05,5.573235102929175e-05,-1.0848247256944887e-05,0.005470707081258297,0.0023863790556788445,-0.00035314029082655907,0.06489799916744232,0.1701793223619461,0.004679374862462282,-1.3077960829832591e-05,-0.0006973264971747994,3.0212650017347187e-06,0.00024247076362371445,3.7055718898773193,10.0,0.0,7000.0,7000.0,7000.0,7000.0,32.766,32.766,0.835,32.766,32.766,2022.9827880859375,809.565673828125,27.271921157836914,,False,
1783647871.288185,2026-07-09T18:44:31,24748,20260709_184425,,,,,,arming,,,,,,,,,False,0.010244257748126984,0.0005864593549631536,0.9998878240585327,-0.06873047351837158,-0.1181221455335617,0.22001515328884125,-4.0,0.0,30.0,0.0,0.0,3.558888420229778e-05,5.573235102929175e-05,-1.0848247256944887e-05,0.005470707081258297,0.0023863790556788445,-0.00035314029082655907,0.06489799916744232,0.1701793223619461,0.004679374862462282,-1.3077960829832591e-05,-0.0006973264971747994,3.0212650017347187e-06,0.00024247076362371445,3.7055718898773193,10.0,0.0,7000.0,7000.0,7000.0,7000.0,32.766,32.766,0.835,32.766,32.766,2022.9827880859375,809.565673828125,27.271921157836914,,False,
1783647871.2984722,2026-07-09T18:44:31,24765,20260709_184425,,,,,,arming,,,,,,,,,False,0.014057972468435764,0.009753393009305,0.9994732737541199,-0.38494765758514404,0.20090146362781525,0.04120071232318878,4.0,0.0,53.0,0.0,0.0,4.250327401678078e-05,3.6641471524490044e-05,-2.7531668820302002e-06,0.00570631492882967,0.0019589983858168125,-0.0001961983653018251,0.09249451756477356,0.1980183720588684,0.0045007201842963696,-2.7531668820302002e-06,-0.000219081062823534,3.2646078125253553e-06,0.0002621750463731587,3.710850477218628,10.0,0.0,7000.0,7000.0,7000.0,7000.0,32.766,32.766,0.835,32.766,32.766,2023.059326171875,809.558837890625,27.282543182373047,,False,
1783647871.3086746,2026-07-09T18:44:31,24768,20260709_184425,,,,,,arming,,,,,,,,,False,0.010183067061007023,0.007863997481763363,1.0011204481124878,0.22385616600513458,0.3570675849914551,-0.06886390596628189,1.0,4.0,53.0,0.0,0.0,4.250327401678078e-05,3.6641471524490044e-05,-2.7531668820302002e-06,0.00570631492882967,0.0019589983858168125,-0.0001961983653018251,0.09249451756477356,0.1980183720588684,0.0045007201842963696,-2.7531668820302002e-06,-0.000219081062823534,3.2646078125253553e-06,0.0002621750463731587,3.710850477218628,10.0,0.0,7000.0,7000.0,7000.0,7000.0,32.766,32.766,0.835,32.766,32.766,2023.059326171875,809.558837890625,27.282543182373047,,False,
1783647871.3188705,2026-07-09T18:44:31,24781,20260709_184425,,,,,,arming,,,,,,,,,False,0.009771865792572498,0.0031654254999011755,0.9999886155128479,0.21069452166557312,-0.5147060751914978,-0.16985569894313812,-3.0,-8.0,59.0,0.0,0.0,0.0009343147394247353,0.0004716036783065647,2.087248685711529e-05,0.014309803955256939,0.005986583884805441,-8.990923379315063e-05,0.0026758441235870123,0.013172195293009281,0.006947524379938841,-2.7531668820302002e-06,-0.000219081062823534,3.2646078125253553e-06,0.0002621750463731587,3.710850477218628,10.0,0.0,7000.0,7000.0,7000.0,7000.0,32.766,32.766,0.835,32.766,32.766,2023.059326171875,809.558837890625,27.282543182373047,,False,
1783647871.3291109,2026-07-09T18:44:31,24797,20260709_184425,,,,,,arming,,,,,,,,,False,0.003749338211491704,0.005375492852181196,1.0016086101531982,-0.13223420083522797,-0.16127626597881317,0.1852341741323471,3.0,0.0,33.0,0.0,0.0,0.0009343147394247353,0.0004716036783065647,2.087248685711529e-05,0.014309803955256939,0.005986583884805441,-8.990923379315063e-05,0.0026758441235870123,0.013172195293009281,0.006947524379938841,-2.7531668820302002e-06,-0.000219081062823534,3.2646078125253553e-06,0.0002621750463731587,3.710850477218628,10.0,0.0,7000.0,7000.0,7000.0,7000.0,32.766,32.766,0.835,32.766,32.766,2023.059326171875,809.558837890625,27.282543182373047,,False,
1783647871.3392794,2026-07-09T18:44:31,24807,20260709_184425,,,,,,arming,,,,,,,,,False,0.008297479711472988,0.00279892492108047,0.9935751557350159,-0.13078179955482483,0.2969951629638672,-0.045981839299201965,2.0,5.0,32.0,0.0,0.0,-0.00020918139489367604,-0.0006396154058165848,3.7041958421468735e-05,0.002838744316250086,-0.004194107837975025,0.0002445275604259223,0.24894393980503082,0.30801528692245483,0.00607606116682291,-2.7531668820302002e-06,-0.000219081062823534,3.2646078125253553e-06,0.0002621750463731587,3.710850477218628,10.0,0.0,7000.0,7000.0,7000.0,7000.0,32.766,32.766,0.835,32.766,32.766,2023.059326171875,809.558837890625,27.282543182373047,,False,
1783647871.3494427,2026-07-09T18:44:31,24817,20260709_184425,,,,,,arming,,,,,,,,,False,0.013203534297645092,0.0033484837040305138,0.9996151924133301,0.25267618894577026,0.31770429015159607,-0.3435805141925812,-3.0,-4.0,57.0,0.0,0.0,-0.00020918139489367604,-0.0006396154058165848,3.7041958421468735e-05,0.002838744316250086,-0.004194107837975025,0.0002445275604259223,0.24894393980503082,0.30801528692245483,0.00607606116682291,4.667522443924099e-05,0.00010045110684586689,3.4080903787980787e-06,0.000248275842750445,3.7055718898773193,10.0,0.0,7000.0,7000.0,7000.0,7000.0,32.766,32.766,0.8310000000000001,32.766,32.766,2023.059326171875,809.558837890625,27.282543182373047,,False,
1783647871.3596084,2026-07-09T18:44:31,24827,20260709_184425,,,,,,arming,,,,,,,,,False,0.015795288607478142,0.009696412831544876,1.0025745630264282,-0.036401692777872086,-0.5406017899513245,-0.2242097109556198,-4.0,3.0,56.0,0.0,0.0,5.967154720565304e-06,0.0009737667278386652,5.593484820565209e-05,0.0047171516343951225,0.010357907973229885,3.0032600989216007e-05,-0.05782433971762657,0.2857966125011444,0.008378148078918457,4.667522443924099e-05,0.00010045110684586689,3.4080903787980787e-06,0.000248275842750445,3.7055718898773193,10.0,0.0,7000.0,7000.0,7000.0,7000.0,32.766,32.766,0.8310000000000001,32.766,32.766,2023.059326171875,809.558837890625,27.282543182373047,,False,
1783647871.3697684,2026-07-09T18:44:31,24837,20260709_184425,,,,,,arming,,,,,,,,,False,0.013245642185211182,0.004422310274094343,1.0010207891464233,0.1710929274559021,-0.3904787302017212,0.24043574929237366,4.0,0.0,59.0,0.0,0.0,5.967154720565304e-06,0.0009737667278386652,5.593484820565209e-05,0.0047171516343951225,0.010357907973229885,3.0032600989216007e-05,-0.05782433971762657,0.2857966125011444,0.008378148078918457,4.667522443924099e-05,0.00010045110684586689,3.4080903787980787e-06,0.000248275842750445,3.7055718898773193,10.0,0.0,7000.0,7000.0,7000.0,7000.0,32.766,32.766,0.8310000000000001,32.766,32.766,2023.059326171875,809.558837890625,27.282543182373047,,False,
1783647871.3799398,2026-07-09T18:44:31,24847,20260709_184425,,,,,,arming,,,,,,,,,False,0.00545429578050971,0.004853537306189537,1.0018986463546753,-0.036859214305877686,-0.3198981285095215,-0.19836658239364624,-2.0,-4.0,54.0,0.0,0.0,0.0009416225948370993,0.0004968806752003729,4.698951670434326e-05,0.013059909455478191,0.005887225735932589,0.00026140097179450095,0.05213925614953041,0.1422589272260666,0.009711897000670433,4.667522443924099e-05,0.00010045110684586689,3.4080903787980787e-06,0.000248275842750445,3.7055718898773193,10.0,0.0,7000.0,7000.0,7000.0,7000.0,32.766,32.766,0.8310000000000001,32.766,32.766,2023.059326171875,809.558837890625,27.282543182373047,,False,
1783647871.3902204,2026-07-09T18:44:31,24858,20260709_184425,,,,,,arming,,,,,,,,,False,0.006807980127632618,0.002686335239559412,1.0001243352890015,0.12177737802267075,-0.697075366973877,0.09422236680984497,2.0,0.0,56.0,0.0,0.0,0.0009416225948370993,0.0004968806752003729,4.698951670434326e-05,0.013059909455478191,0.005887225735932589,0.00026140097179450095,0.05213925614953041,0.1422589272260666,0.009711897000670433,4.667522443924099e-05,0.00010045110684586689,3.4080903787980787e-06,0.000248275842750445,3.7055718898773193,10.0,0.0,7000.0,7000.0,7000.0,7000.0,32.766,32.766,0.8310000000000001,32.766,32.766,2023.059326171875,809.558837890625,27.282543182373047,,False,
1783647871.4004776,2026-07-09T18:44:31,24868,20260709_184425,,,,,,arming,,,,,,,,,False,0.005036885384470224,0.006016785744577646,0.9989548921585083,0.03380844369530678,0.008824034593999386,0.003163208719342947,1.0,-3.0,55.0,0.0,0.0,-3.7507656088564545e-05,0.000477041641715914,7.371014362433925e-05,0.004265704192221165,0.005655952729284763,0.0005425445269793272,0.07680686563253403,0.3339208960533142,0.009518829174339771,7.371014362433925e-05,0.0005100888665765524,3.6705421280203154e-06,0.00023852133017499,3.7055718898773193,10.0,0.0,7000.0,7000.0,7000.0,7000.0,32.766,32.766,0.8310000000000001,32.766,32.766,2023.07568359375,809.5575561523438,27.28799819946289,,False,
1783647871.4106936,2026-07-09T18:44:31,24878,20260709_184425,,,,,,arming,,,,,,,,,False,0.011822286993265152,0.004771396052092314,0.9989497065544128,-0.11503159254789352,0.21373359858989716,-0.08813132345676422,0.0,0.0,57.0,0.0,0.0,-3.7507656088564545e-05,0.000477041641715914,7.371014362433925e-05,0.004265704192221165,0.005655952729284763,0.0005425445269793272,0.07680686563253403,0.3339208960533142,0.009518829174339771,7.371014362433925e-05,0.0005100888665765524,3.6705421280203154e-06,0.00023852133017499,3.7055718898773193,10.0,0.0,7000.0,7000.0,7000.0,7000.0,32.766,32.766,0.8310000000000001,32.766,32.766,2023.07568359375,809.5575561523438,27.28799819946289,,False,
1783647871.4208827,2026-07-09T18:44:31,24888,20260709_184425,,,,,,arming,,,,,,,,,False,0.007337662857025862,0.004601634107530117,1.003991961479187,-0.05916053056716919,-0.07727576792240143,-0.31923601031303406,0.0,4.0,34.0,0.0,0.0,0.0007808896480128169,0.0002677612064871937,8.70476578711532e-05,0.010393586941063404,0.003888443810865283,0.0005974349332973361,0.1239641010761261,0.23607856035232544,0.00830345880240202,7.371014362433925e-05,0.0005100888665765524,3.6705421280203154e-06,0.00023852133017499,3.7055718898773193,10.0,0.0,7000.0,7000.0,7000.0,7000.0,32.766,32.766,0.8310000000000001,32.766,32.766,2023.07568359375,809.5575561523438,27.28799819946289,,False,
1783647871.4311635,2026-07-09T18:44:31,24899,20260709_184425,,,,,,arming,,,,,,,,,False,0.00995365809649229,0.002765066223219037,1.0016419887542725,0.3137562870979309,-0.035961270332336426,-0.43312036991119385,1.0,-1.0,34.0,0.0,0.0,-6.05775167059619e-05,-2.8759859560523182e-05,6.826034950790927e-05,0.0031560815405100584,0.0006579106557182968,0.0007748061907477677,0.1239641010761261,0.23607856035232544,0.00830345880240202,7.371014362433925e-05,0.0005100888665765524,3.6705421280203154e-06,0.00023852133017499,3.7055718898773193,10.0,0.0,7000.0,7000.0,7000.0,7000.0,32.766,32.766,0.8310000000000001,32.766,32.766,2023.07568359375,809.5575561523438,27.28799819946289,,False,
1783647871.4413388,2026-07-09T18:44:31,24908,20260709_184425,,,,,,arming,,,,,,,,,False,0.006878165528178215,-0.001204152824357152,0.9984714388847351,-0.07252659648656845,-0.1633518785238266,0.1555837094783783,-4.0,-2.0,59.0,0.0,0.0,-6.05775167059619e-05,-2.8759859560523182e-05,6.826034950790927e-05,0.0031560815405100584,0.0006579106557182968,0.0007748061907477677,0.17237423360347748,0.3733655512332916,0.008220558054745197,7.371014362433925e-05,0.0005100888665765524,3.6705421280203154e-06,0.00023852133017499,3.7055718898773193,10.0,0.0,7000.0,7000.0,7000.0,7000.0,32.766,32.766,0.8310000000000001,32.766,32.766,2023.07568359375,809.5575561523438,27.28799819946289,,False,
1783647871.4515066,2026-07-09T18:44:31,24919,20260709_184425,,,,,,arming,,,,,,,,,False,0.005381448660045862,0.004875614773482084,1.0009890794754028,0.0472792312502861,-0.007183872628957033,-0.2530318796634674,5.0,1.0,61.0,0.0,0.0,0.0001798776793293655,-0.00030962785240262747,0.00010411110997665673,0.004592547193169594,-0.0015005739405751228,0.0009176798048429191,0.17237423360347748,0.3733655512332916,0.008220558054745197,7.939299393910915e-05,0.0007818695157766342,3.569391992641613e-06,0.00021941980230621994,3.7055718898773193,10.0,0.0,7000.0,7000.0,7000.0,7000.0,32.766,32.766,0.8260000000000001,32.766,32.766,2023.07568359375,809.5575561523438,27.28799819946289,,False,
1783647871.4616737,2026-07-09T18:44:31,24928,20260709_184425,,,,,,arming,,,,,,,,,False,0.011538799852132797,0.00345079624094069,0.9988211393356323,-0.052640870213508606,0.4635065197944641,-0.26374873518943787,0.0,-2.0,66.0,0.0,0.0,0.0001798776793293655,-0.00030962785240262747,0.00010411110997665673,0.004592547193169594,-0.0015005739405751228,0.0009176798048429191,0.2147262543439865,0.352668821811676,0.00828487891703844,7.939299393910915e-05,0.0007818695157766342,3.569391992641613e-06,0.00021941980230621994,3.7055718898773193,10.0,0.0,7000.0,7000.0,7000.0,7000.0,32.766,32.766,0.8260000000000001,32.766,32.766,2023.07568359375,809.5575561523438,27.28799819946289,,False,
1783647871.4718409,2026-07-09T18:44:31,24939,20260709_184425,,,,,,arming,,,,,,,,,False,0.008768076077103615,0.0076025123707950115,1.0000368356704712,-0.30393004417419434,-0.18972815573215485,0.19776958227157593,-1.0,2.0,51.0,0.0,0.0,0.00013970525469630957,-4.1115567000815645e-05,7.701360300416127e-05,0.004406217951327562,0.0009600091143511236,0.000640072044916451,0.2147262543439865,0.352668821811676,0.00828487891703844,7.939299393910915e-05,0.0007818695157766342,3.569391992641613e-06,0.00021941980230621994,3.7055718898773193,10.0,0.0,7000.0,7000.0,7000.0,7000.0,32.766,32.766,0.8260000000000001,32.766,32.766,2023.07568359375,809.5575561523438,27.28799819946289,,False,
1783647871.4820373,2026-07-09T18:44:31,24948,20260709_184425,,,,,,arming,,,,,,,,,False,0.012981091625988483,0.008842806331813335,1.0051451921463013,0.2761380672454834,-0.1569693237543106,0.1528947800397873,-4.0,0.0,38.0,0.0,0.0,0.00013970525469630957,-4.1115567000815645e-05,7.701360300416127e-05,0.004406217951327562,0.0009600091143511236,0.000640072044916451,0.18166159093379974,0.3706739842891693,0.006140913814306259,7.939299393910915e-05,0.0007818695157766342,3.569391992641613e-06,0.00021941980230621994,3.7055718898773193,10.0,0.0,7000.0,7000.0,7000.0,7000.0,32.766,32.766,0.8260000000000001,32.766,32.766,2023.07568359375,809.5575561523438,27.28799819946289,,False,
1783647871.4922023,2026-07-09T18:44:31,24961,20260709_184425,,,,,,arming,,,,,,,,,False,0.008545130491256714,0.005159817170351744,1.0056045055389404,0.0014761221827939153,-0.3034661114215851,-0.0485910028219223,4.0,2.0,61.0,0.0,0.0,-0.0004096485790796578,-7.17707080184482e-05,0.00010937167826341465,0.0002583676832728088,0.0002625916386023164,0.001422976958565414,0.191512331366539,0.4410434365272522,0.005175626836717129,7.939299393910915e-05,0.0007818695157766342,3.569391992641613e-06,0.00021941980230621994,3.7055718898773193,10.0,0.0,7000.0,7000.0,7000.0,7000.0,32.766,32.766,0.8260000000000001,32.766,32.766,2023.07568359375,809.5575561523438,27.28799819946289,,False,
1783647871.5023735,2026-07-09T18:44:31,24968,20260709_184425,,,,,,arming,,,,,,,,,False,0.006496746093034744,0.002573721343651414,1.0013843774795532,0.1688581109046936,-0.4153212010860443,-0.1994064599275589,0.0,-1.0,53.0,0.0,0.0,-0.0004096485790796578,-7.17707080184482e-05,0.00010937167826341465,0.0002583676832728088,0.0002625916386023164,0.001422976958565414,0.191512331366539,0.4410434365272522,0.005175626836717129,0.00010937167826341465,0.0014200631994754076,3.6505653042695485e-06,0.00021500131697393954,3.7055718898773193,10.0,0.0,7000.0,7000.0,7000.0,7000.0,32.766,32.766,0.8260000000000001,32.766,32.766,2023.04833984375,809.56005859375,27.295854568481445,,False,
1783647871.512537,2026-07-09T18:44:31,24979,20260709_184425,,,,,,arming,,,,,,,,,False,0.005141500383615494,-0.0008487910963594913,1.0026904344558716,0.2957494258880615,-0.1637340784072876,0.2329525202512741,-4.0,0.0,54.0,0.0,0.0,-0.0001590433530509472,0.0009666848345659673,0.00014785218809265643,0.002304591005668044,0.007390706799924374,0.001965196570381522,0.191512331366539,0.4410434365272522,0.005175626836717129,0.00010937167826341465,0.0014200631994754076,3.6505653042695485e-06,0.00021500131697393954,3.7055718898773193,10.0,0.0,7000.0,7000.0,7000.0,7000.0,32.766,32.766,0.8260000000000001,32.766,32.766,2023.04833984375,809.56005859375,27.295854568481445,,False,
1783647871.5226986,2026-07-09T18:44:31,24988,20260709_184425,,,,,,arming,,,,,,,,,False,0.006909484043717384,-0.0016043352661654353,1.0003232955932617,-0.32165616750717163,0.24099908769130707,-0.08166742324829102,3.0,1.0,34.0,0.0,0.0,-0.0001590433530509472,0.0009666848345659673,0.00014785218809265643,0.002304591005668044,0.007390706799924374,0.001965196570381522,0.08508963882923126,0.42259857058525085,0.006134641822427511,0.00010937167826341465,0.0014200631994754076,3.6505653042695485e-06,0.00021500131697393954,3.7055718898773193,10.0,0.0,7000.0,7000.0,7000.0,7000.0,32.766,32.766,0.8260000000000001,32.766,32.766,2023.04833984375,809.56005859375,27.295854568481445,,False,
1783647871.5328634,2026-07-09T18:44:31,25001,20260709_184425,,,,,,arming,,,,,,,,,False,0.010946379974484444,0.006625600624829531,0.9994109272956848,-0.23899735510349274,0.1705179363489151,-0.08049052953720093,-3.0,-1.0,29.0,0.0,0.0,-0.00015864022134337574,0.0009525690111331642,0.00011668888328131288,0.002299938118085265,0.007059404160827398,0.001736207865178585,0.095919668674469,0.42404705286026,0.005918343085795641,0.00010937167826341465,0.0014200631994754076,3.6505653042695485e-06,0.00021500131697393954,3.7055718898773193,10.0,0.0,7000.0,7000.0,7000.0,7000.0,32.766,32.766,0.8260000000000001,32.766,32.766,2023.04833984375,809.56005859375,27.295854568481445,,False,
1783647871.543064,2026-07-09T18:44:31,25008,20260709_184425,,,,,,arming,,,,,,,,,False,0.01158090028911829,0.011167080141603947,0.9990538954734802,-0.2017344832420349,0.03485100716352463,0.06714847683906555,5.0,4.0,53.0,0.0,0.0,-0.00015864022134337574,0.0009525690111331642,0.00011668888328131288,0.002299938118085265,0.007059404160827398,0.001736207865178585,0.095919668674469,0.42404705286026,0.005918343085795641,0.00010937167826341465,0.0014200631994754076,3.6505653042695485e-06,0.00021500131697393954,3.7055718898773193,10.0,0.0,7000.0,7000.0,7000.0,7000.0,32.766,32.766,0.8260000000000001,32.766,32.766,2023.04833984375,809.56005859375,27.295854568481445,,False,
1783647871.5532258,2026-07-09T18:44:31,25021,20260709_184425,,,,,,arming,,,,,,,,,False,0.014128971844911575,0.005621456075459719,1.0038615465164185,0.2990959882736206,-0.2984192371368408,0.06336741149425507,-5.0,-4.0,58.0,0.0,0.0,-0.00016932161815930158,0.0009278454235754907,0.0001848498359322548,0.002288475399836898,0.006867783609777689,0.0021698910277336836,0.10576965659856796,0.4247274100780487,0.007500951178371906,0.000143891986226663,0.001965893665328622,3.4847494134737644e-06,0.00020189996575936675,3.7055718898773193,10.0,0.0,7000.0,7000.0,7000.0,7000.0,32.766,32.766,0.8290000000000001,32.766,32.766,2023.04833984375,809.56005859375,27.295854568481445,,False,
1783647871.5633976,2026-07-09T18:44:31,25028,20260709_184425,,,,,,arming,,,,,,,,,False,0.0055287242867052555,0.005236953496932983,1.00116765499115,0.445138156414032,-0.22310496866703033,0.25802767276763916,2.0,0.0,53.0,0.0,0.0,-0.00016932161815930158,0.0009278454235754907,0.0001848498359322548,0.002288475399836898,0.006867783609777689,0.0021698910277336836,0.10576965659856796,0.4247274100780487,0.007500951178371906,0.000143891986226663,0.001965893665328622,3.4847494134737644e-06,0.00020189996575936675,3.7055718898773193,10.0,0.0,7000.0,7000.0,7000.0,7000.0,32.766,32.766,0.8290000000000001,32.766,32.766,2023.04833984375,809.56005859375,27.295854568481445,,False,
1783647871.5735579,2026-07-09T18:44:31,25041,20260709_184425,,,,,,arming,,,,,,,,,False,0.003743072971701622,0.000845803355332464,1.001579761505127,-0.09440731257200241,0.3012564182281494,0.39484673738479614,-2.0,0.0,48.0,0.0,0.0,-0.0001631406630622223,0.0009047731291502714,0.00014452672621700913,0.0022065581288188696,0.006349216215312481,0.0018402229761704803,0.11812171339988708,0.4230014979839325,0.00734165171161294,0.000143891986226663,0.001965893665328622,3.4847494134737644e-06,0.00020189996575936675,3.7055718898773193,10.0,0.0,7000.0,7000.0,7000.0,7000.0,32.766,32.766,0.8290000000000001,32.766,32.766,2023.04833984375,809.56005859375,27.295854568481445,,False,
1783647871.5837162,2026-07-09T18:44:31,25048,20260709_184425,,,,,,arming,,,,,,,,,False,0.005594430956989527,-0.0002968505141325295,1.0001699924468994,-0.02185112237930298,0.23651430010795593,0.1298789083957672,0.0,-1.0,46.0,0.0,0.0,-0.0001631406630622223,0.0009047731291502714,0.00014452672621700913,0.0022065581288188696,0.006349216215312481,0.0018402229761704803,0.11812171339988708,0.4230014979839325,0.00734165171161294,0.000143891986226663,0.001965893665328622,3.4847494134737644e-06,0.00020189996575936675,3.7055718898773193,10.0,0.0,7000.0,7000.0,7000.0,7000.0,32.766,32.766,0.8290000000000001,32.766,32.766,2023.04833984375,809.56005859375,27.295854568481445,,False,
1783647871.5938842,2026-07-09T18:44:31,25061,20260709_184425,,,,,,arming,,,,,,,,,False,0.006405851803719997,0.0030811200849711895,0.9973351359367371,-0.09938375651836395,-0.18094541132450104,0.009441773407161236,4.0,0.0,55.0,0.0,0.0,7.905662641860545e-05,-0.0001358771842205897,0.00018904985336121172,0.0036985762417316437,-0.0005844602710567415,0.0018483976600691676,0.21504497528076172,0.4081244170665741,0.007740059867501259,0.000143891986226663,0.001965893665328622,3.4847494134737644e-06,0.00020189996575936675,3.7055718898773193,10.0,0.0,7000.0,7000.0,7000.0,7000.0,32.766,32.766,0.8290000000000001,32.766,32.766,2023.04833984375,809.56005859375,27.295854568481445,,False,
1783647871.6041894,2026-07-09T18:44:31,25068,20260709_184425,,,,,,arming,,,,,,,,,False,0.014327533543109894,0.0020389517303556204,1.0014287233352661,-0.08712697774171829,0.094678595662117,-0.06666899472475052,0.0,0.0,57.0,0.0,0.0,7.905662641860545e-05,-0.0001358771842205897,0.00018904985336121172,0.0036985762417316437,-0.0005844602710567415,0.0018483976600691676,0.21504497528076172,0.4081244170665741,0.007740059867501259,0.00018904985336121172,0.0018241924699395895,3.551846248228685e-06,0.0002077679382637143,3.7055718898773193,10.0,0.0,7000.0,7000.0,7000.0,7000.0,32.766,32.766,0.8290000000000001,32.766,32.766,2023.092041015625,809.5560913085938,27.301897048950195,,False,
1783647871.6143763,2026-07-09T18:44:31,25081,20260709_184425,,,,,,arming,,,,,,,,,False,0.01494507398456335,0.005500455852597952,0.9992363452911377,-0.011651081964373589,-0.20844599604606628,-0.17151978611946106,-1.0,-2.0,59.0,0.0,0.0,0.0006425490719266236,0.0001217122480738908,0.0002273238787893206,0.007160977926105261,0.0009252450545318425,0.001949935220181942,0.19520868360996246,0.3708663880825043,0.00966818630695343,0.00018904985336121172,0.0018241924699395895,3.551846248228685e-06,0.0002077679382637143,3.7055718898773193,10.0,0.0,7000.0,7000.0,7000.0,7000.0,32.766,32.766,0.8290000000000001,32.766,32.766,2023.092041015625,809.5560913085938,27.301897048950195,,False,
1783647871.624598,2026-07-09T18:44:31,25088,20260709_184425,,,,,,arming,,,,,,,,,False,0.00935265701264143,0.006477498449385166,1.0025602579116821,0.09848111867904663,-0.47816768288612366,0.036987580358982086,-3.0,2.0,34.0,0.0,0.0,0.0006425490719266236,0.0001217122480738908,0.0002273238787893206,0.007160977926105261,0.0009252450545318425,0.001949935220181942,0.19520868360996246,0.3708663880825043,0.00966818630695343,0.00018904985336121172,0.0018241924699395895,3.551846248228685e-06,0.0002077679382637143,3.7055718898773193,10.0,0.0,7000.0,7000.0,7000.0,7000.0,32.766,32.766,0.8290000000000001,32.766,32.766,2023.092041015625,809.5560913085938,27.301897048950195,,False,
