pc_time_s,pc_time_iso,cf_time_ms,session_id,motif_id,motif_type,motif_phase,rep_index,motif_param_json,flight_phase,cmd_vx_m_s,cmd_vy_m_s,cmd_yaw_rate_deg_s,cmd_height_m,cmd_vx_raw_m_s,cmd_vy_raw_m_s,cmd_yaw_rate_raw_deg_s,cmd_height_raw_m,safety_override_active,acc_x_g,acc_y_g,acc_z_g,gyro_x_dps,gyro_y_dps,gyro_z_dps,flow_delta_x_px,flow_delta_y_px,flow_squal,zrange_mm,zrange_m,x_m,y_m,z_m,vx_m_s,vy_m_s,vz_m_s,roll_deg,pitch_deg,yaw_deg,kalman_state_z_m,kalman_state_pz,kalman_var_z,kalman_var_pz,battery_v,battery_level_pct,pm_state,motor_m1,motor_m2,motor_m3,motor_m4,range_front_m,range_back_m,range_left_m,range_right_m,range_up_m,baro_asl_m,baro_pressure_hpa,baro_temp_c,safety_flag,should_land,event
1783700463.1032662,2026-07-10T09:21:03,,20260710_092058,,,,,,ground_idle,,,,,,,,,False,,,,,,,,,,,,,,,,,,,,,,,,,,,,,,,,,,,,,,,,,False,
1783700463.1134286,2026-07-10T09:21:03,55554,20260710_092058,,,,,,ground_idle,,,,,,,,,False,0.011287836357951164,-0.004784704186022282,0.9991092681884766,0.08405619114637375,0.15583984553813934,0.0412072092294693,,,,,,,,,,,,,,,,,,,,,,,,,,,,,,,,,,,False,
1783700463.1235545,2026-07-10T09:21:03,55564,20260710_092058,,,,,,ground_idle,,,,,,,,,False,0.01017080619931221,-0.0037118298932909966,1.0019785165786743,-0.211305633187294,-0.13423611223697662,-0.29986006021499634,0.0,4.0,108.0,25.0,0.025,,,,,,,,,,,,,,,,,,,,,,,,,,,,,,False,
1783700463.133673,2026-07-10T09:21:03,55574,20260710_092058,,,,,,ground_idle,,,,,,,,,False,0.009198957122862339,-0.004621283616870642,1.0016894340515137,0.03059985674917698,0.06158427149057388,-0.041464533656835556,-1.0,-1.0,94.0,25.0,0.025,0.0017602386651560664,-0.0001694236125331372,0.02537425048649311,0.0012468057684600353,0.001211461960338056,-0.00389873213134706,-0.22894549369812012,0.5911152958869934,-0.09885483980178833,,,,,,,,,,,,,,,,,,,,,False,
1783700463.1437848,2026-07-10T09:21:03,55584,20260710_092058,,,,,,ground_idle,,,,,,,,,False,0.011043989099562168,-0.0040814573876559734,1.0013774633407593,-0.1730860322713852,-0.24044564366340637,-0.10131371021270752,1.0,2.0,96.0,25.0,0.025,0.0017602386651560664,-0.0001694236125331372,0.02537425048649311,0.0012468057684600353,0.001211461960338056,-0.00389873213134706,-0.22894549369812012,0.5911152958869934,-0.09885483980178833,,,,,,,,,,,,,,,,,,,,,False,
1783700463.1538942,2026-07-10T09:21:03,55594,20260710_092058,,,,,,ground_idle,,,,,,,,,False,0.010073507204651833,-0.004186214413493872,1.0022599697113037,0.17060934007167816,-0.1619187742471695,-0.24968576431274414,0.0,-5.0,82.0,25.0,0.025,0.0023959376849234104,-0.00038299549487419426,0.02530667930841446,0.004515097476541996,-7.95851374277845e-05,-0.003526760498061776,-0.22053870558738708,0.5641456246376038,-0.09926527738571167,,,,,,,,,,,,,,,,,,,,,False,
1783700463.1640248,2026-07-10T09:21:03,55604,20260710_092058,,,,,,ground_idle,,,,,,,,,False,0.010251704603433609,-0.0036992228124290705,1.0011851787567139,0.17014919221401215,-0.16610507667064667,-0.1227320209145546,0.0,0.0,78.0,27.0,0.027,0.0023959376849234104,-0.00038299549487419426,0.02530667930841446,0.004515097476541996,-7.95851374277845e-05,-0.003526760498061776,-0.22053870558738708,0.5641456246376038,-0.09926527738571167,0.02603614330291748,0.0003750048635993153,2.9817092581652105e-06,0.00017857593775261194,4.1331377029418945,90.0,0.0,0.0,0.0,0.0,0.0,32.766,32.766,0.226,32.766,2.847,,,,,False,
1783700463.1742783,2026-07-10T09:21:03,55616,20260710_092058,,,,,,ground_idle,,,,,,,,,False,0.009937943890690804,-0.0036281049251556396,0.9980818629264832,0.15199877321720123,0.41502708196640015,-0.030893506482243538,0.0,2.0,100.0,27.0,0.027,0.001979451160877943,-0.00038333903648890555,0.026044262573122978,0.0019269053591415286,-9.744053386384621e-05,0.0006489246734417975,-0.2167179435491562,0.5866988897323608,-0.10110893845558167,0.02603614330291748,0.0003750048635993153,2.9817092581652105e-06,0.00017857593775261194,4.1331377029418945,90.0,0.0,0.0,0.0,0.0,0.0,32.766,32.766,0.226,32.766,2.847,,,,,False,
1783700463.1844327,2026-07-10T09:21:03,55626,20260710_092058,,,,,,ground_idle,,,,,,,,,False,0.008872677572071552,-0.0045042033307254314,1.000722050666809,-0.10810787230730057,0.12434922903776169,-0.02716958522796631,-1.0,-1.0,92.0,27.0,0.027,0.001979451160877943,-0.00038333903648890555,0.026044262573122978,0.0019269053591415286,-9.744053386384621e-05,0.0006489246734417975,-0.2167179435491562,0.5866988897323608,-0.10110893845558167,0.02603614330291748,0.0003750048635993153,2.9817092581652105e-06,0.00017857593775261194,4.1331377029418945,90.0,0.0,0.0,0.0,0.0,0.0,32.766,32.766,0.226,32.766,2.847,,,,,False,
1783700463.1945927,2026-07-10T09:21:03,55636,20260710_092058,,,,,,ground_idle,,,,,,,,,False,0.010830109938979149,-0.003813742659986019,0.9995193481445312,0.06877385824918747,-0.21481266617774963,-0.17874817550182343,0.0,0.0,86.0,24.0,0.024,0.001762704225257039,-0.0001611655461601913,0.026057044044137,0.0005295873270370066,0.0010489635169506073,0.0005320717464201152,-0.22333215177059174,0.5912784337997437,-0.10021021217107773,0.02603614330291748,0.0003750048635993153,2.9817092581652105e-06,0.00017857593775261194,4.1331377029418945,90.0,0.0,0.0,0.0,0.0,0.0,32.766,32.766,0.226,32.766,2.847,,,,,False,
1783700463.2047534,2026-07-10T09:21:03,55646,20260710_092058,,,,,,ground_idle,,,,,,,,,False,0.012681787833571434,-0.00419310387223959,1.0019817352294922,0.0038127757143229246,-0.23005661368370056,0.03710351884365082,1.0,-3.0,91.0,24.0,0.024,0.001762704225257039,-0.0001611655461601913,0.026057044044137,0.0005295873270370066,0.0010489635169506073,0.0005320717464201152,-0.22333215177059174,0.5912784337997437,-0.10021021217107773,0.02603614330291748,0.0003750048635993153,2.9817092581652105e-06,0.00017857593775261194,4.1331377029418945,90.0,0.0,0.0,0.0,0.0,0.0,32.766,32.766,0.226,32.766,2.847,,,,,False,
1783700463.2149038,2026-07-10T09:21:03,55654,20260710_092058,,,,,,ground_idle,,,,,,,,,False,0.010332831181585789,-0.003774368204176426,1.0000838041305542,-0.03605641424655914,0.01157259102910757,-0.1547619253396988,1.0,-3.0,91.0,24.0,0.024,0.0024676434695720673,-0.00038859082269482315,0.025169162079691887,0.0043412307277321815,-0.0003101222973782569,-0.003679523942992091,-0.21144503355026245,0.5598992109298706,-0.10092087090015411,0.025169162079691887,-0.003722873982042074,3.0652142868348164e-06,0.00018374514183960855,4.138416290283203,90.0,0.0,0.0,0.0,0.0,0.0,32.766,32.766,0.226,32.766,2.847,2019.2371826171875,809.8988037109375,30.29378318786621,,False,
1783700463.2250793,2026-07-10T09:21:03,55666,20260710_092058,,,,,,ground_idle,,,,,,,,,False,0.012457985430955887,-0.004790700040757656,1.0006184577941895,0.11327876895666122,0.1277230978012085,-0.21629615128040314,1.0,1.0,91.0,24.0,0.024,0.0024676434695720673,-0.00038859082269482315,0.025169162079691887,0.0043412307277321815,-0.0003101222973782569,-0.003679523942992091,-0.21144503355026245,0.5598992109298706,-0.10092087090015411,0.025169162079691887,-0.003722873982042074,3.0652142868348164e-06,0.00018374514183960855,4.138416290283203,90.0,0.0,0.0,0.0,0.0,0.0,32.766,32.766,0.226,32.766,2.847,2019.2371826171875,809.8988037109375,30.29378318786621,,False,
1783700463.2353253,2026-07-10T09:21:03,55676,20260710_092058,,,,,,ground_idle,,,,,,,,,False,0.012078026309609413,-0.003454816062003374,1.0000407695770264,0.12260695546865463,0.18303285539150238,0.15774081647396088,0.0,1.0,97.0,24.0,0.024,0.001778308185748756,-0.0003870504442602396,0.02510034292936325,0.0006224550888873637,-0.00043063837802037597,-0.0035581577103585005,-0.2109452337026596,0.5877152681350708,-0.1016133576631546,0.025169162079691887,-0.003722873982042074,3.0652142868348164e-06,0.00018374514183960855,4.138416290283203,90.0,0.0,0.0,0.0,0.0,0.0,32.766,32.766,0.226,32.766,2.847,2019.2371826171875,809.8988037109375,30.29378318786621,,False,
1783700463.2455053,2026-07-10T09:21:03,55686,20260710_092058,,,,,,ground_idle,,,,,,,,,False,0.009391529485583305,-0.004350915551185608,0.99953293800354,0.09094737470149994,0.2741801142692566,-0.0027202910277992487,0.0,0.0,79.0,24.0,0.024,0.001778308185748756,-0.0003870504442602396,0.02510034292936325,0.0006224550888873637,-0.00043063837802037597,-0.0035581577103585005,-0.2109452337026596,0.5877152681350708,-0.1016133576631546,0.025169162079691887,-0.003722873982042074,3.0652142868348164e-06,0.00018374514183960855,4.138416290283203,90.0,0.0,0.0,0.0,0.0,0.0,32.766,32.766,0.226,32.766,2.847,2019.2371826171875,809.8988037109375,30.29378318786621,,False,
1783700463.255677,2026-07-10T09:21:03,55696,20260710_092058,,,,,,ground_idle,,,,,,,,,False,0.009075013920664787,-0.004077843390405178,1.0004397630691528,-0.10104703158140182,-0.16466312110424042,0.07555017620325089,0.0,0.0,77.0,28.0,0.028,0.0015512111131101847,-0.00039224763168022037,0.025028755888342857,-0.0003544406790751964,-0.00045329879503697157,-0.0035968131851404905,-0.2090652734041214,0.5941806435585022,-0.10129294544458389,0.025169162079691887,-0.003722873982042074,3.0652142868348164e-06,0.00018374514183960855,4.138416290283203,90.0,0.0,0.0,0.0,0.0,0.0,32.766,32.766,0.226,32.766,2.847,2019.2371826171875,809.8988037109375,30.29378318786621,,False,
1783700463.2658353,2026-07-10T09:21:03,55706,20260710_092058,,,,,,ground_idle,,,,,,,,,False,0.012688216753304005,-0.004870049189776182,0.9984581470489502,0.02985362336039543,0.004166584927588701,-0.17068016529083252,0.0,-1.0,92.0,28.0,0.028,0.0015512111131101847,-0.00039224763168022037,0.025028755888342857,-0.0003544406790751964,-0.00045329879503697157,-0.0035968131851404905,-0.2090652734041214,0.5941806435585022,-0.10129294544458389,0.026333538815379143,0.0031091149430722,2.9817201721016318e-06,0.00017857691273093224,4.138416290283203,90.0,0.0,0.0,0.0,0.0,0.0,0.316,0.379,0.23,32.766,2.827,2019.2371826171875,809.8988037109375,30.29378318786621,,False,
1783700463.275993,2026-07-10T09:21:03,55716,20260710_092058,,,,,,ground_idle,,,,,,,,,False,0.011891146190464497,-0.001814424293115735,1.001900315284729,0.12600363790988922,0.1571858823299408,-0.23128923773765564,0.0,1.0,100.0,28.0,0.028,0.001788035617209971,-0.00039141569868661463,0.026364706456661224,0.0009540336905047297,-0.0005415714113041759,0.003016735427081585,-0.2091435343027115,0.5812963843345642,-0.1028938964009285,0.026333538815379143,0.0031091149430722,2.9817201721016318e-06,0.00017857691273093224,4.138416290283203,90.0,0.0,0.0,0.0,0.0,0.0,0.316,0.379,0.23,32.766,2.827,2019.2371826171875,809.8988037109375,30.29378318786621,,False,
1783700463.286457,2026-07-10T09:21:03,55726,20260710_092058,,,,,,ground_idle,,,,,,,,,False,0.013410993851721287,-0.00265087210573256,1.0018887519836426,0.017845528200268745,0.1833050400018692,-0.13610954582691193,-1.0,0.0,91.0,28.0,0.028,0.001788035617209971,-0.00039141569868661463,0.026364706456661224,0.0009540336905047297,-0.0005415714113041759,0.003016735427081585,-0.2091435343027115,0.5812963843345642,-0.1028938964009285,0.026333538815379143,0.0031091149430722,2.9817201721016318e-06,0.00017857691273093224,4.138416290283203,90.0,0.0,0.0,0.0,0.0,0.0,0.316,0.379,0.23,32.766,2.827,2019.2371826171875,809.8988037109375,30.29378318786621,,False,
1783700463.2967486,2026-07-10T09:21:03,55736,20260710_092058,,,,,,ground_idle,,,,,,,,,False,0.011087927035987377,-0.003977295011281967,1.0028831958770752,0.013611416332423687,0.33913150429725647,0.20809558033943176,0.0,0.0,78.0,27.0,0.027,0.0015463812742382288,-0.00014381352229975164,0.026427151635289192,8.338141196873039e-05,0.0010377640137448907,0.0032953040208667517,-0.21736010909080505,0.5909688472747803,-0.10470981150865555,0.026333538815379143,0.0031091149430722,2.9817201721016318e-06,0.00017857691273093224,4.138416290283203,90.0,0.0,0.0,0.0,0.0,0.0,0.316,0.379,0.23,32.766,2.827,2019.2371826171875,809.8988037109375,30.29378318786621,,False,
1783700463.306904,2026-07-10T09:21:03,55746,20260710_092058,,,,,,ground_idle,,,,,,,,,False,0.010212227702140808,-0.004195624962449074,0.9991280436515808,0.1619078814983368,-0.107613205909729,0.10033485293388367,1.0,0.0,91.0,27.0,0.027,0.0015463812742382288,-0.00014381352229975164,0.026427151635289192,8.338141196873039e-05,0.0010377640137448907,0.0032953040208667517,-0.21736010909080505,0.5909688472747803,-0.10470981150865555,0.026333538815379143,0.0031091149430722,2.9817201721016318e-06,0.00017857691273093224,4.138416290283203,90.0,0.0,0.0,0.0,0.0,0.0,0.316,0.379,0.23,32.766,2.827,2019.2371826171875,809.8988037109375,30.29378318786621,,False,
1783700463.31706,2026-07-10T09:21:03,55756,20260710_092058,,,,,,ground_idle,,,,,,,,,False,0.010902569629251957,-0.0050876145251095295,0.9996835589408875,-0.031213166192173958,0.3570854365825653,0.16739673912525177,-1.0,0.0,93.0,27.0,0.027,0.001542357844300568,-0.0003930055827368051,0.02674836292862892,0.00021981584723107517,-0.0003785914450418204,0.004837779328227043,-0.20423944294452667,0.5902618765830994,-0.10256831347942352,0.02674836292862892,0.004833882208913565,3.06523656945501e-06,0.00018374672799836844,4.138416290283203,90.0,0.0,0.0,0.0,0.0,0.0,0.316,0.379,0.23,32.766,2.827,2019.2808837890625,809.894775390625,30.29828453063965,,False,
1783700463.3273098,2026-07-10T09:21:03,55766,20260710_092058,,,,,,ground_idle,,,,,,,,,False,0.008754154667258263,-0.0030457531102001667,1.0016043186187744,0.07618309557437897,0.043027523905038834,-0.0724916160106659,1.0,-1.0,88.0,27.0,0.027,0.001542357844300568,-0.0003930055827368051,0.02674836292862892,0.00021981584723107517,-0.0003785914450418204,0.004837779328227043,-0.20423944294452667,0.5902618765830994,-0.10256831347942352,0.02674836292862892,0.004833882208913565,3.06523656945501e-06,0.00018374672799836844,4.138416290283203,90.0,0.0,0.0,0.0,0.0,0.0,0.316,0.379,0.23,32.766,2.827,2019.2808837890625,809.894775390625,30.29828453063965,,False,
1783700463.3374922,2026-07-10T09:21:03,55776,20260710_092058,,,,,,ground_idle,,,,,,,,,False,0.008227881975471973,-0.00293354457244277,1.0008352994918823,-0.1383376121520996,-0.02497248537838459,0.2396954596042633,0.0,1.0,101.0,27.0,0.027,0.001801100093871355,-0.00039154564728960395,0.026845434680581093,0.0015370291657745838,-0.0005360413924790919,0.0049073039554059505,-0.20575974881649017,0.5795721411705017,-0.1030210629105568,0.02674836292862892,0.004833882208913565,3.06523656945501e-06,0.00018374672799836844,4.138416290283203,90.0,0.0,0.0,0.0,0.0,0.0,0.316,0.379,0.23,32.766,2.827,2019.2808837890625,809.894775390625,30.29828453063965,,False,
1783700463.3476417,2026-07-10T09:21:03,55786,20260710_092058,,,,,,ground_idle,,,,,,,,,False,0.012150981463491917,-0.005290227942168713,1.000713586807251,0.011045576073229313,0.10244635492563248,-0.052427202463150024,0.0,-3.0,81.0,27.0,0.027,0.001801100093871355,-0.00039154564728960395,0.026845434680581093,0.0015370291657745838,-0.0005360413924790919,0.0049073039554059505,-0.20575974881649017,0.5795721411705017,-0.1030210629105568,0.02674836292862892,0.004833882208913565,3.06523656945501e-06,0.00018374672799836844,4.138416290283203,90.0,0.0,0.0,0.0,0.0,0.0,0.316,0.379,0.23,32.766,2.827,2019.2808837890625,809.894775390625,30.29828453063965,,False,
1783700463.3577907,2026-07-10T09:21:03,55796,20260710_092058,,,,,,ground_idle,,,,,,,,,False,0.010934052988886833,-0.006211222615092993,1.0021319389343262,-0.16166436672210693,-0.12878158688545227,0.0917215645313263,0.0,0.0,79.0,31.0,0.031,0.002285856520757079,-0.00038784442585892975,0.026947060599923134,0.0037476718425750732,-0.0005037921364419162,0.0050637200474739075,-0.20695394277572632,0.5587941408157349,-0.10270020365715027,0.02674836292862892,0.004833882208913565,3.06523656945501e-06,0.00018374672799836844,4.138416290283203,90.0,0.0,0.0,0.0,0.0,0.0,0.316,0.379,0.23,32.766,2.827,2019.2808837890625,809.894775390625,30.29828453063965,,False,
1783700463.3679392,2026-07-10T09:21:03,55809,20260710_092058,,,,,,ground_idle,,,,,,,,,False,0.009848448447883129,-0.00468631274998188,1.0018064975738525,0.14899154007434845,-0.10188213735818863,0.1402682512998581,-1.0,1.0,96.0,31.0,0.031,0.002041068160906434,-0.00013246403250377625,0.028973160311579704,0.002343851374462247,0.000494854524731636,0.014545617625117302,-0.20695394277572632,0.5587941408157349,-0.10270020365715027,0.028827205300331116,0.01429580245167017,2.981751549668843e-06,0.00017857814964372665,4.138416290283203,90.0,0.0,0.0,0.0,0.0,0.0,32.766,32.766,0.224,32.766,2.84,2019.2808837890625,809.894775390625,30.29828453063965,,False,
1783700463.3780873,2026-07-10T09:21:03,55816,20260710_092058,,,,,,ground_idle,,,,,,,,,False,0.012907065451145172,-0.004062381107360125,1.001285433769226,-0.08904816955327988,-0.15500083565711975,-0.14792533218860626,0.0,2.0,101.0,31.0,0.031,0.002041068160906434,-0.00013246403250377625,0.028973160311579704,0.002343851374462247,0.000494854524731636,0.014545617625117302,-0.21554484963417053,0.5697209239006042,-0.10366412997245789,0.028827205300331116,0.01429580245167017,2.981751549668843e-06,0.00017857814964372665,4.138416290283203,90.0,0.0,0.0,0.0,0.0,0.0,32.766,32.766,0.224,32.766,2.84,2019.2808837890625,809.894775390625,30.29828453063965,,False,
1783700463.3883488,2026-07-10T09:21:03,55830,20260710_092058,,,,,,ground_idle,,,,,,,,,False,0.01299950759857893,-0.0036401054821908474,1.001007080078125,-0.012205896899104118,-0.285730242729187,0.19123516976833344,0.0,0.0,95.0,31.0,0.031,0.0015207227552309632,-0.0001267331390408799,0.02926809899508953,3.8972924812696874e-05,0.0004236151580698788,0.014777873642742634,-0.21425028145313263,0.5940307378768921,-0.10469887405633926,0.028827205300331116,0.01429580245167017,2.981751549668843e-06,0.00017857814964372665,4.138416290283203,90.0,0.0,0.0,0.0,0.0,0.0,32.766,32.766,0.224,32.766,2.84,2019.2808837890625,809.894775390625,30.29828453063965,,False,
1783700463.3985045,2026-07-10T09:21:03,55836,20260710_092058,,,,,,ground_idle,,,,,,,,,False,0.009211902506649494,-0.005961526185274124,1.0004196166992188,-0.11696497350931168,0.4730624258518219,0.04399946331977844,4.0,-1.0,80.0,25.0,0.025,0.0015207227552309632,-0.0001267331390408799,0.02926809899508953,3.8972924812696874e-05,0.0004236151580698788,0.014777873642742634,-0.21425028145313263,0.5940307378768921,-0.10469887405633926,0.028827205300331116,0.01429580245167017,2.981751549668843e-06,0.00017857814964372665,4.138416290283203,90.0,0.0,0.0,0.0,0.0,0.0,32.766,32.766,0.224,32.766,2.84,2019.2808837890625,809.894775390625,30.29828453063965,,False,
1783700463.4086537,2026-07-10T09:21:03,55850,20260710_092058,,,,,,ground_idle,,,,,,,,,False,0.011058357544243336,-0.004499438684433699,1.0010340213775635,0.12899398803710938,0.09257938712835312,0.038967639207839966,-2.0,0.0,94.0,25.0,0.025,0.0018030067440122366,-0.0006504105986095965,0.027703503146767616,0.001393504673615098,-0.0023187382612377405,0.0060829040594398975,-0.19732345640659332,0.5793173909187317,-0.1039649099111557,0.028827205300331116,0.01429580245167017,2.981751549668843e-06,0.00017857814964372665,4.138416290283203,90.0,0.0,0.0,0.0,0.0,0.0,32.766,32.766,0.224,32.766,2.84,2019.2808837890625,809.894775390625,30.29828453063965,,False,
1783700463.4188159,2026-07-10T09:21:03,55856,20260710_092058,,,,,,ground_idle,,,,,,,,,False,0.011120791547000408,-0.0045057847164571285,1.0012493133544922,-0.18182432651519775,-0.16725695133209229,0.08830816298723221,-1.0,1.0,98.0,25.0,0.025,0.0018030067440122366,-0.0006504105986095965,0.027703503146767616,0.001393504673615098,-0.0023187382612377405,0.0060829040594398975,-0.19732345640659332,0.5793173909187317,-0.1039649099111557,0.027703503146767616,0.006060460582375526,3.0652322493551765e-06,0.00018374554929323494,4.138416290283203,90.0,0.0,0.0,0.0,0.0,0.0,32.766,32.766,0.224,32.766,2.84,2019.3192138671875,809.8914794921875,30.300262451171875,,False,
1783700463.4289677,2026-07-10T09:21:03,55869,20260710_092058,,,,,,ground_idle,,,,,,,,,False,0.011691906489431858,-0.005291118286550045,1.0015017986297607,0.0495128333568573,-0.06813298165798187,-0.18533432483673096,3.0,0.0,96.0,25.0,0.025,0.0015380290569737554,-0.0011452063918113708,0.02782752923667431,0.0001780244492692873,-0.0048792255111038685,0.006350870244204998,-0.19732345640659332,0.5793173909187317,-0.1039649099111557,0.027703503146767616,0.006060460582375526,3.0652322493551765e-06,0.00018374554929323494,4.138416290283203,90.0,0.0,0.0,0.0,0.0,0.0,32.766,32.766,0.224,32.766,2.84,2019.3192138671875,809.8914794921875,30.300262451171875,,False,
1783700463.4391239,2026-07-10T09:21:03,55876,20260710_092058,,,,,,ground_idle,,,,,,,,,False,0.012411197647452354,-0.003797043114900589,0.9998446702957153,0.0897475853562355,0.1259041577577591,0.13140982389450073,-2.0,0.0,103.0,25.0,0.025,0.0015380290569737554,-0.0011452063918113708,0.02782752923667431,0.0001780244492692873,-0.0048792255111038685,0.006350870244204998,-0.1794249564409256,0.5890511870384216,-0.10374762117862701,0.027703503146767616,0.006060460582375526,3.0652322493551765e-06,0.00018374554929323494,4.138416290283203,90.0,0.0,0.0,0.0,0.0,0.0,32.766,32.766,0.224,32.766,2.84,2019.3192138671875,809.8914794921875,30.300262451171875,,False,
1783700463.449298,2026-07-10T09:21:03,55890,20260710_092058,,,,,,ground_idle,,,,,,,,,False,0.010686592198908329,-0.004296008497476578,1.0010172128677368,-0.008580686524510384,-0.05418335646390915,-0.11440875381231308,-2.0,-4.0,73.0,25.0,0.025,0.0025397981517016888,-0.00013318071432877332,0.027962548658251762,0.005518163554370403,0.0004036846221424639,0.00648187892511487,-0.22008782625198364,0.5494751334190369,-0.10479725152254105,0.027703503146767616,0.006060460582375526,3.0652322493551765e-06,0.00018374554929323494,4.138416290283203,90.0,0.0,0.0,0.0,0.0,0.0,32.766,32.766,0.224,32.766,2.84,2019.3192138671875,809.8914794921875,30.300262451171875,,False,
1783700463.4594944,2026-07-10T09:21:03,55896,20260710_092058,,,,,,ground_idle,,,,,,,,,False,0.009209257550537586,-0.004861773457378149,1.0033320188522339,-0.08536368608474731,-0.175157830119133,0.05442606285214424,1.0,0.0,81.0,24.0,0.024,0.0025397981517016888,-0.00013318071432877332,0.027962548658251762,0.005518163554370403,0.0004036846221424639,0.00648187892511487,-0.22008782625198364,0.5494751334190369,-0.10479725152254105,0.027703503146767616,0.006060460582375526,3.0652322493551765e-06,0.00018374554929323494,4.138416290283203,90.0,0.0,0.0,0.0,0.0,0.0,32.766,32.766,0.224,32.766,2.84,2019.3192138671875,809.8914794921875,30.300262451171875,,False,
1783700463.4696739,2026-07-10T09:21:03,55910,20260710_092058,,,,,,ground_idle,,,,,,,,,False,0.010100641287863255,-0.005154164042323828,1.0029377937316895,0.07451552152633667,-0.11331383138895035,0.018712125718593597,3.0,-1.0,97.0,24.0,0.024,0.0027753235772252083,-0.001118809450417757,0.02622009813785553,0.006184627301990986,-0.004706079605966806,-0.0018243170343339443,-0.18350528180599213,0.5458733439445496,-0.1032584086060524,0.02624143660068512,-0.002240790519863367,2.9816922051395522e-06,0.00017857465718407184,4.1331377029418945,90.0,0.0,0.0,0.0,0.0,0.0,0.31,32.766,0.226,32.766,2.834,2019.3192138671875,809.8914794921875,30.300262451171875,,False,
1783700463.479841,2026-07-10T09:21:03,55916,20260710_092058,,,,,,ground_idle,,,,,,,,,False,0.012051716446876526,-0.005783661734312773,0.9980904459953308,0.037355829030275345,0.45231038331985474,0.027567313984036446,0.0,5.0,98.0,24.0,0.024,0.0027753235772252083,-0.001118809450417757,0.02622009813785553,0.006184627301990986,-0.004706079605966806,-0.0018243170343339443,-0.18350528180599213,0.5458733439445496,-0.1032584086060524,0.02624143660068512,-0.002240790519863367,2.9816922051395522e-06,0.00017857465718407184,4.1331377029418945,90.0,0.0,0.0,0.0,0.0,0.0,0.31,32.766,0.226,32.766,2.834,2019.3192138671875,809.8914794921875,30.300262451171875,,False,
1783700463.4900026,2026-07-10T09:21:03,55930,20260710_092058,,,,,,ground_idle,,,,,,,,,False,0.009494920261204243,-0.004907232243567705,0.9995285868644714,-0.07601483166217804,-0.23767663538455963,-0.13823945820331573,-4.0,0.0,96.0,24.0,0.024,0.0015575253637507558,-0.00013850787945557386,0.026200855150818825,-1.4718790453116526e-07,0.00026243834872730076,-0.001874115550890565,-0.22561413049697876,0.5940077900886536,-0.10225188732147217,0.02624143660068512,-0.002240790519863367,2.9816922051395522e-06,0.00017857465718407184,4.1331377029418945,90.0,0.0,0.0,0.0,0.0,0.0,0.31,32.766,0.226,32.766,2.834,2019.3192138671875,809.8914794921875,30.300262451171875,,False,
1783700463.5001934,2026-07-10T09:21:03,55936,20260710_092058,,,,,,ground_idle,,,,,,,,,False,0.009374951012432575,-0.0037226465065032244,1.0017497539520264,0.2064354568719864,0.2582085132598877,0.047998808324337006,0.0,-3.0,75.0,26.0,0.026,0.0015575253637507558,-0.00013850787945557386,0.026200855150818825,-1.4718790453116526e-07,0.00026243834872730076,-0.001874115550890565,-0.22561413049697876,0.5940077900886536,-0.10225188732147217,0.02624143660068512,-0.002240790519863367,2.9816922051395522e-06,0.00017857465718407184,4.1331377029418945,90.0,0.0,0.0,0.0,0.0,0.0,0.31,32.766,0.226,32.766,2.834,2019.3192138671875,809.8914794921875,30.300262451171875,,False,
1783700463.5103705,2026-07-10T09:21:03,55951,20260710_092058,,,,,,ground_idle,,,,,,,,,False,0.01084237638860941,-0.0018280771328136325,1.0016801357269287,-0.1327774077653885,0.09988174587488174,0.14103728532791138,0.0,1.0,101.0,26.0,0.026,0.0020419538486748934,-0.00014477441436611116,0.026080824434757233,0.002216247608885169,0.00033335774787701666,-0.0019585639238357544,-0.22345198690891266,0.573276698589325,-0.10208316892385483,0.026080824434757233,-0.001979307970032096,3.0651942779513774e-06,0.00018374269711785018,4.1331377029418945,90.0,0.0,0.0,0.0,0.0,0.0,0.31,32.766,0.226,32.766,2.834,2019.3192138671875,809.8914794921875,30.300262451171875,,False,
1783700463.5205247,2026-07-10T09:21:03,55956,20260710_092058,,,,,,ground_idle,,,,,,,,,False,0.011014400981366634,-0.0016067492542788386,1.0017510652542114,0.07697698473930359,-0.03928132355213165,0.03752056881785393,4.0,2.0,97.0,26.0,0.026,0.0020419538486748934,-0.00014477441436611116,0.026080824434757233,0.002216247608885169,0.00033335774787701666,-0.0019585639238357544,-0.22345198690891266,0.573276698589325,-0.10208316892385483,0.026080824434757233,-0.001979307970032096,3.0651942779513774e-06,0.00018374269711785018,4.138416290283203,90.0,0.0,0.0,0.0,0.0,0.0,0.31,32.766,0.226,32.766,2.834,2019.2755126953125,809.8953247070312,30.308223724365234,,False,
1783700463.5306768,2026-07-10T09:21:03,55970,20260710_092058,,,,,,ground_idle,,,,,,,,,False,0.008763791993260384,-0.0025388370268046856,0.9999780058860779,-0.056360628455877304,0.16719065606594086,0.0646224394440651,-3.0,0.0,95.0,26.0,0.026,0.001568557694554329,-0.0003781780251301825,0.026052163913846016,-0.00023476524802390486,-0.0002870876924134791,-0.0016379967564716935,-0.21359357237815857,0.5926823616027832,-0.10048787295818329,0.026080824434757233,-0.001979307970032096,3.0651942779513774e-06,0.00018374269711785018,4.138416290283203,90.0,0.0,0.0,0.0,0.0,0.0,0.31,32.766,0.226,32.766,2.834,2019.2755126953125,809.8953247070312,30.308223724365234,,False,
1783700463.5408273,2026-07-10T09:21:03,55976,20260710_092058,,,,,,ground_idle,,,,,,,,,False,0.011406349018216133,-0.005544009618461132,0.9992832541465759,0.11017517745494843,-0.26177680492401123,0.11146286129951477,2.0,0.0,99.0,26.0,0.026,0.001568557694554329,-0.0003781780251301825,0.026052163913846016,-0.00023476524802390486,-0.0002870876924134791,-0.0016379967564716935,-0.21359357237815857,0.5926823616027832,-0.10048787295818329,0.026080824434757233,-0.001979307970032096,3.0651942779513774e-06,0.00018374269711785018,4.138416290283203,90.0,0.0,0.0,0.0,0.0,0.0,0.31,32.766,0.226,32.766,2.834,2019.2755126953125,809.8953247070312,30.308223724365234,,False,
1783700463.5509765,2026-07-10T09:21:03,55990,20260710_092058,,,,,,ground_idle,,,,,,,,,False,0.010922233574092388,-0.006472155451774597,1.0010879039764404,-0.2653302550315857,-0.41688016057014465,0.06585512310266495,-3.0,-3.0,75.0,26.0,0.026,0.002257308457046747,-0.00015132548287510872,0.026024935767054558,0.0033516688272356987,0.0006479013827629387,-0.0016282600117847323,-0.22478681802749634,0.5656558275222778,-0.10194149613380432,0.026080824434757233,-0.001979307970032096,3.0651942779513774e-06,0.00018374269711785018,4.138416290283203,90.0,0.0,0.0,0.0,0.0,0.0,0.31,32.766,0.226,32.766,2.834,2019.2755126953125,809.8953247070312,30.308223724365234,,False,
1783700463.5611386,2026-07-10T09:21:03,56001,20260710_092058,,,,,,ground_idle,,,,,,,,,False,0.01236370112746954,-0.005427804309874773,1.0018688440322876,0.2975858449935913,-0.30245456099510193,0.05060909688472748,0.0,0.0,79.0,27.0,0.027,0.002257308457046747,-0.00015132548287510872,0.026024935767054558,0.0033516688272356987,0.0006479013827629387,-0.0016282600117847323,-0.22478681802749634,0.5656558275222778,-0.10194149613380432,0.02644965425133705,0.0007403860799968243,2.981703801197e-06,0.00017857550119515508,4.138416290283203,90.0,0.0,0.0,0.0,0.0,0.0,0.31,32.766,0.226,32.766,2.834,2019.2755126953125,809.8953247070312,30.308223724365234,,False,
1783700463.5713153,2026-07-10T09:21:03,56010,20260710_092058,,,,,,ground_idle,,,,,,,,,False,0.010876492597162724,-0.003753355937078595,1.0006084442138672,-0.2545470893383026,0.023593034595251083,0.26289016008377075,1.0,3.0,97.0,27.0,0.027,0.0015627036336809397,-0.0003807030152529478,0.026461105793714523,-0.00014819425996392965,-0.0008405706030316651,0.0008694973075762391,-0.2168082296848297,0.5963240265846252,-0.09984469413757324,0.02644965425133705,0.0007403860799968243,2.981703801197e-06,0.00017857550119515508,4.1331377029418945,90.0,0.0,0.0,0.0,0.0,0.0,0.304,0.378,0.229,32.766,2.856,2019.2755126953125,809.8953247070312,30.308223724365234,,False,
1783700463.5814714,2026-07-10T09:21:03,56016,20260710_092058,,,,,,ground_idle,,,,,,,,,False,0.011403761804103851,-0.002345183864235878,0.9990294575691223,-0.20256908237934113,-0.11908847093582153,9.432785009266809e-05,0.0,0.0,100.0,27.0,0.027,0.0015627036336809397,-0.0003807030152529478,0.026461105793714523,-0.00014819425996392965,-0.0008405706030316651,0.0008694973075762391,-0.2168082296848297,0.5963240265846252,-0.09984469413757324,0.02644965425133705,0.0007403860799968243,2.981703801197e-06,0.00017857550119515508,4.1331377029418945,90.0,0.0,0.0,0.0,0.0,0.0,0.304,0.378,0.229,32.766,2.856,2019.2755126953125,809.8953247070312,30.308223724365234,,False,
1783700463.5916271,2026-07-10T09:21:03,56030,20260710_092058,,,,,,ground_idle,,,,,,,,,False,0.010247564874589443,-0.003693242324516177,1.000713586807251,0.20895683765411377,-0.03620941936969757,-0.10814739018678665,0.0,0.0,97.0,27.0,0.027,0.0015615602023899555,-0.00039524398744106293,0.026477715000510216,-3.893734537996352e-05,-0.0006405350868590176,0.0008369727875106037,-0.21790845692157745,0.5964279770851135,-0.10090230405330658,0.02644965425133705,0.0007403860799968243,2.981703801197e-06,0.00017857550119515508,4.1331377029418945,90.0,0.0,0.0,0.0,0.0,0.0,0.304,0.378,0.229,32.766,2.856,2019.2755126953125,809.8953247070312,30.308223724365234,,False,
1783700463.6017823,2026-07-10T09:21:03,56036,20260710_092058,,,,,,ground_idle,,,,,,,,,False,0.012860867194831371,-0.002665799343958497,1.0000114440917969,0.04050559550523758,0.5206735730171204,-0.00949353352189064,-1.0,4.0,97.0,27.0,0.027,0.0015615602023899555,-0.00039524398744106293,0.026477715000510216,-3.893734537996352e-05,-0.0006405350868590176,0.0008369727875106037,-0.21790845692157745,0.5964279770851135,-0.10090230405330658,0.02644965425133705,0.0007403860799968243,2.981703801197e-06,0.00017857550119515508,4.1331377029418945,90.0,0.0,0.0,0.0,0.0,0.0,0.304,0.378,0.229,32.766,2.856,2019.2755126953125,809.8953247070312,30.308223724365234,,False,
1783700463.6119354,2026-07-10T09:21:03,56052,20260710_092058,,,,,,ground_idle,,,,,,,,,False,0.008402292616665363,-0.0036066866014152765,1.0007405281066895,-0.07684900611639023,-0.19326353073120117,0.13320812582969666,1.0,-3.0,98.0,27.0,0.027,0.0013103766832500696,-0.0003929061640519649,0.026728438213467598,-0.0009282829705625772,-0.00045427962322719395,0.002010471886023879,-0.21896201372146606,0.6002866625785828,-0.099673330783844,0.026728438213467598,0.0020183257292956114,3.065207465624553e-06,0.00018374648061580956,4.138416290283203,90.0,0.0,0.0,0.0,0.0,0.0,0.304,0.378,0.229,32.766,2.856,2019.2755126953125,809.8953247070312,30.308223724365234,,False,
1783700463.6220872,2026-07-10T09:21:03,56056,20260710_092058,,,,,,ground_idle,,,,,,,,,False,0.009251171723008156,-0.004631660412997007,1.002220630645752,0.10482212901115417,-0.030850080773234367,-0.036880627274513245,0.0,-1.0,95.0,27.0,0.027,0.0013103766832500696,-0.0003929061640519649,0.026728438213467598,-0.0009282829705625772,-0.00045427962322719395,0.002010471886023879,-0.21896201372146606,0.6002866625785828,-0.099673330783844,0.026728438213467598,0.0020183257292956114,3.065207465624553e-06,0.00018374648061580956,4.138416290283203,90.0,0.0,0.0,0.0,0.0,0.0,0.304,0.378,0.229,32.766,2.856,2019.2261962890625,809.8993530273438,30.315324783325195,,False,
1783700463.6323147,2026-07-10T09:21:03,56074,20260710_092058,,,,,,ground_idle,,,,,,,,,False,0.012644377537071705,-0.005456546321511269,1.0000123977661133,0.12864895164966583,0.004229896701872349,0.15412695705890656,-1.0,0.0,96.0,27.0,0.027,0.0015617308672517538,-0.0001389287644997239,0.026772933080792427,0.00020341004710644484,0.0007753499085083604,0.002389409113675356,-0.22982947528362274,0.5936297178268433,-0.1020444929599762,0.026728438213467598,0.0020183257292956114,3.065207465624553e-06,0.00018374648061580956,4.138416290283203,90.0,0.0,0.0,0.0,0.0,0.0,0.304,0.378,0.229,32.766,2.856,2019.2261962890625,809.8993530273438,30.315324783325195,,False,
1783700463.642465,2026-07-10T09:21:03,56084,20260710_092058,,,,,,ground_idle,,,,,,,,,False,0.01168274786323309,-0.004625597503036261,0.9995039701461792,-0.04381515085697174,-0.08102583140134811,0.1787581443786621,4.0,0.0,102.0,27.0,0.027,0.0015617308672517538,-0.0001389287644997239,0.026772933080792427,0.00020341004710644484,0.0007753499085083604,0.002389409113675356,-0.22982947528362274,0.5936297178268433,-0.1020444929599762,0.026728438213467598,0.0020183257292956114,3.065207465624553e-06,0.00018374648061580956,4.138416290283203,90.0,0.0,0.0,0.0,0.0,0.0,0.304,0.378,0.229,32.766,2.856,2019.2261962890625,809.8993530273438,30.315324783325195,,False,
1783700463.652613,2026-07-10T09:21:03,56094,20260710_092058,,,,,,ground_idle,,,,,,,,,False,0.010569468140602112,-0.0029976963996887207,0.9989855289459229,-0.29712173342704773,-0.03949197754263878,0.011669453233480453,-4.0,0.0,75.0,27.0,0.027,0.0015625552041456103,-0.00014552753418684006,0.026832470670342445,0.0004970298032276332,0.0006771901971660554,0.002452640561386943,-0.22894929349422455,0.5919628739356995,-0.09981215000152588,0.026728438213467598,0.0020183257292956114,3.065207465624553e-06,0.00018374648061580956,4.138416290283203,90.0,0.0,0.0,0.0,0.0,0.0,0.304,0.378,0.229,32.766,2.856,2019.2261962890625,809.8993530273438,30.315324783325195,,False,
1783700463.6627717,2026-07-10T09:21:03,56104,20260710_092058,,,,,,ground_idle,,,,,,,,,False,0.010569468140602112,-0.0029976963996887207,0.9989855289459229,-0.29712173342704773,-0.03949197754263878,0.011669453233480453,0.0,-3.0,80.0,27.0,0.027,0.0015625552041456103,-0.00014552753418684006,0.026832470670342445,0.0004970298032276332,0.0006771901971660554,0.002452640561386943,-0.22894929349422455,0.5919628739356995,-0.09981215000152588,0.026932492852211,0.0027510635554790497,2.981707439175807e-06,0.00017857742204796523,4.138416290283203,90.0,0.0,0.0,0.0,0.0,0.0,0.31,32.766,0.226,32.766,2.84,2019.2261962890625,809.8993530273438,30.315324783325195,,False,
1783700463.6729188,2026-07-10T09:21:03,56110,20260710_092058,,,,,,ground_idle,,,,,,,,,False,0.011054281145334244,-0.0034619399812072515,1.001541256904602,-0.10725205391645432,-0.1957109123468399,0.13463234901428223,0.0,3.0,97.0,27.0,0.027,0.0015592357376590371,-0.00014145896420814097,0.026964837685227394,0.000381494261091575,0.0007228486356325448,0.0028485453221946955,-0.22992371022701263,0.5946014523506165,-0.09981276094913483,0.026932492852211,0.0027510635554790497,2.981707439175807e-06,0.00017857742204796523,4.138416290283203,90.0,0.0,0.0,0.0,0.0,0.0,0.31,32.766,0.226,32.766,2.84,2019.2261962890625,809.8993530273438,30.315324783325195,,False,
1783700463.6830654,2026-07-10T09:21:03,56124,20260710_092058,,,,,,ground_idle,,,,,,,,,False,0.01103902980685234,-0.0034657393116503954,0.9995938539505005,-0.1631166934967041,-0.43042510747909546,0.04739067703485489,0.0,0.0,96.0,27.0,0.027,0.0015592357376590371,-0.00014145896420814097,0.026964837685227394,0.000381494261091575,0.0007228486356325448,0.0028485453221946955,-0.22992371022701263,0.5946014523506165,-0.09981276094913483,0.026932492852211,0.0027510635554790497,2.981707439175807e-06,0.00017857742204796523,4.138416290283203,90.0,0.0,0.0,0.0,0.0,0.0,0.31,32.766,0.226,32.766,2.84,2019.2261962890625,809.8993530273438,30.315324783325195,,False,
1783700463.6934078,2026-07-10T09:21:03,56134,20260710_092058,,,,,,ground_idle,,,,,,,,,False,0.01035348605364561,-0.002883746288716793,0.9995054602622986,-0.27268680930137634,0.07178379595279694,-0.10227382928133011,1.0,-1.0,97.0,27.0,0.027,0.0018083301838487387,-0.00038820356712676585,0.027025539427995682,0.0016767840133979917,-0.0006355110090225935,0.0030907706823199987,-0.2223789095878601,0.5867676734924316,-0.0985073670744896,0.026932492852211,0.0027510635554790497,2.981707439175807e-06,0.00017857742204796523,4.138416290283203,90.0,0.0,0.0,0.0,0.0,0.0,0.31,32.766,0.226,32.766,2.84,2019.2261962890625,809.8993530273438,30.315324783325195,,False,
1783700463.703649,2026-07-10T09:21:03,56144,20260710_092058,,,,,,ground_idle,,,,,,,,,False,0.011642392724752426,-0.004522186238318682,1.0010772943496704,0.04319301247596741,0.07907339185476303,-0.2517988979816437,0.0,1.0,97.0,28.0,0.028,0.0018083301838487387,-0.00038820356712676585,0.027025539427995682,0.0016767840133979917,-0.0006355110090225935,0.0030907706823199987,-0.2223789095878601,0.5867676734924316,-0.0985073670744896,0.026932492852211,0.0027510635554790497,2.981707439175807e-06,0.00017857742204796523,4.138416290283203,90.0,0.0,0.0,0.0,0.0,0.0,0.31,32.766,0.226,32.766,2.84,2019.2261962890625,809.8993530273438,30.315324783325195,,False,
1783700463.7138538,2026-07-10T09:21:03,56154,20260710_092058,,,,,,ground_idle,,,,,,,,,False,0.011642392724752426,-0.004522186238318682,1.0010772943496704,0.04319301247596741,0.07907339185476303,-0.2517988979816437,0.0,-1.0,96.0,28.0,0.028,0.0017990145133808255,-0.0003788467438425869,0.027513515204191208,0.0015894370153546333,-0.00039553173701278865,0.005109725520014763,-0.22460630536079407,0.5863012075424194,-0.10100897401571274,0.027513515204191208,0.0050916182808578014,3.0652322493551765e-06,0.00018374677165411413,4.138416290283203,90.0,0.0,0.0,0.0,0.0,0.0,0.31,32.766,0.226,32.766,2.84,2019.209716796875,809.9010620117188,30.31949806213379,,False,
1783700463.724037,2026-07-10T09:21:03,56164,20260710_092058,,,,,,ground_idle,,,,,,,,,False,0.010810703039169312,-0.005702385678887367,1.0014158487319946,0.06274723261594772,0.10540512949228287,0.17281769216060638,0.0,1.0,94.0,28.0,0.028,0.0017990145133808255,-0.0003788467438425869,0.027513515204191208,0.0015894370153546333,-0.00039553173701278865,0.005109725520014763,-0.22460630536079407,0.5863012075424194,-0.10100897401571274,0.027513515204191208,0.0050916182808578014,3.0652322493551765e-06,0.00018374677165411413,4.138416290283203,90.0,0.0,0.0,0.0,0.0,0.0,0.31,32.766,0.226,32.766,2.84,2019.209716796875,809.9010620117188,30.31949806213379,,False,
1783700463.7342656,2026-07-10T09:21:03,56176,20260710_092058,,,,,,ground_idle,,,,,,,,,False,0.011095866560935974,-0.005971528589725494,1.0005955696105957,0.22937649488449097,-0.06491699814796448,-0.3363272249698639,0.0,1.0,95.0,28.0,0.028,0.001789665431715548,-0.000132091372506693,0.027618974447250366,0.0016434489516541362,0.000727865903172642,0.005414565093815327,-0.23432518541812897,0.589314877986908,-0.10307836532592773,0.027513515204191208,0.0050916182808578014,3.0652322493551765e-06,0.00018374677165411413,4.138416290283203,90.0,0.0,0.0,0.0,0.0,0.0,0.31,32.766,0.226,32.766,2.84,2019.209716796875,809.9010620117188,30.31949806213379,,False,
1783700463.7444477,2026-07-10T09:21:03,56186,20260710_092058,,,,,,ground_idle,,,,,,,,,False,0.008414259180426598,-0.0051213097758591175,1.0018812417984009,0.06960069388151169,-0.18355436623096466,0.016464414075016975,1.0,-4.0,79.0,28.0,0.028,0.001789665431715548,-0.000132091372506693,0.027618974447250366,0.0016434489516541362,0.000727865903172642,0.005414565093815327,-0.23432518541812897,0.589314877986908,-0.10307836532592773,0.027513515204191208,0.0050916182808578014,3.0652322493551765e-06,0.00018374677165411413,4.138416290283203,90.0,0.0,0.0,0.0,0.0,0.0,0.31,32.766,0.226,32.766,2.84,2019.209716796875,809.9010620117188,30.31949806213379,,False,
1783700463.7546098,2026-07-10T09:21:03,56196,20260710_092058,,,,,,ground_idle,,,,,,,,,False,0.009426078759133816,-0.006547928787767887,1.0021108388900757,0.23195917904376984,-0.06305848807096481,0.11101409047842026,-1.0,0.0,78.0,24.0,0.024,0.0025010760873556137,-0.00038630812196061015,0.02773146890103817,0.005066330078989267,-0.0009345170692540705,0.0057027507573366165,-0.22075647115707397,0.5605742931365967,-0.1051352322101593,0.027513515204191208,0.0050916182808578014,3.0652322493551765e-06,0.00018374677165411413,4.138416290283203,90.0,0.0,0.0,0.0,0.0,0.0,0.31,32.766,0.226,32.766,2.84,2019.209716796875,809.9010620117188,30.31949806213379,,False,
1783700463.7647746,2026-07-10T09:21:03,56204,20260710_092058,,,,,,ground_idle,,,,,,,,,False,0.008515315130352974,-0.004233602900058031,0.9995062351226807,0.11653227359056473,0.19366735219955444,-0.012804144062101841,-1.0,0.0,78.0,24.0,0.024,0.0025010760873556137,-0.00038630812196061015,0.02773146890103817,0.005066330078989267,-0.0009345170692540705,0.0057027507573366165,-0.22075647115707397,0.5605742931365967,-0.1051352322101593,0.026106683537364006,-0.002468274673447013,2.9817035738233244e-06,0.00017857589409686625,4.1331377029418945,90.0,0.0,0.0,0.0,0.0,0.0,32.766,32.766,0.227,32.766,2.862,2019.209716796875,809.9010620117188,30.31949806213379,,False,
1783700463.774934,2026-07-10T09:21:03,56216,20260710_092058,,,,,,ground_idle,,,,,,,,,False,0.010670226998627186,-0.002792287850752473,0.9995176792144775,0.030644522979855537,-0.16722555458545685,0.10983511805534363,4.0,3.0,93.0,24.0,0.024,0.0025553922168910503,-0.00015770837489981204,0.026082739233970642,0.004681944847106934,-6.711525202263147e-05,-0.0023669321089982986,-0.22956624627113342,0.5624465942382812,-0.10625762492418289,0.026106683537364006,-0.002468274673447013,2.9817035738233244e-06,0.00017857589409686625,4.1331377029418945,90.0,0.0,0.0,0.0,0.0,0.0,32.766,32.766,0.227,32.766,2.862,2019.209716796875,809.9010620117188,30.31949806213379,,False,
1783700463.7850883,2026-07-10T09:21:03,56226,20260710_092058,,,,,,ground_idle,,,,,,,,,False,0.010383708402514458,-0.0032109031453728676,1.0010805130004883,-0.25758102536201477,-0.1814880520105362,-0.18822598457336426,-3.0,2.0,98.0,24.0,0.024,0.0025553922168910503,-0.00015770837489981204,0.026082739233970642,0.004681944847106934,-6.711525202263147e-05,-0.0023669321089982986,-0.22956624627113342,0.5624465942382812,-0.10625762492418289,0.026106683537364006,-0.002468274673447013,2.9817035738233244e-06,0.00017857589409686625,4.1331377029418945,90.0,0.0,0.0,0.0,0.0,0.0,32.766,32.766,0.227,32.766,2.862,2019.209716796875,809.9010620117188,30.31949806213379,,False,
1783700463.7952855,2026-07-10T09:21:03,56236,20260710_092058,,,,,,ground_idle,,,,,,,,,False,0.011103207245469093,-0.004628051538020372,1.0016664266586304,0.008350304327905178,-0.17271195352077484,0.06172201409935951,3.0,0.0,103.0,29.0,0.029,0.0012995831202715635,-0.00039046831079758704,0.02604571543633938,-0.0018382716225460172,-0.0008653807453811169,-0.0023480146192014217,-0.22471508383750916,0.6141830086708069,-0.10418093949556351,0.026106683537364006,-0.002468274673447013,2.9817035738233244e-06,0.00017857589409686625,4.1331377029418945,90.0,0.0,0.0,0.0,0.0,0.0,32.766,32.766,0.227,32.766,2.862,2019.209716796875,809.9010620117188,30.31949806213379,,False,
1783700463.8054435,2026-07-10T09:21:03,56246,20260710_092058,,,,,,ground_idle,,,,,,,,,False,0.011108309961855412,-0.006925099529325962,1.0007867813110352,-0.17571263015270233,-0.20919641852378845,0.15496613085269928,-4.0,-1.0,97.0,29.0,0.029,0.0012995831202715635,-0.00039046831079758704,0.02604571543633938,-0.0018382716225460172,-0.0008653807453811169,-0.0023480146192014217,-0.22471508383750916,0.6141830086708069,-0.10418093949556351,0.026106683537364006,-0.002468274673447013,2.9817035738233244e-06,0.00017857589409686625,4.1331377029418945,90.0,0.0,0.0,0.0,0.0,0.0,32.766,32.766,0.227,32.766,2.862,2019.209716796875,809.9010620117188,30.31949806213379,,False,
1783700463.815596,2026-07-10T09:21:03,56254,20260710_092058,,,,,,ground_idle,,,,,,,,,False,0.010917267762124538,-0.005846948828548193,1.0012491941452026,0.1353321224451065,0.022354867309331894,0.09684748202562332,-4.0,-1.0,97.0,29.0,0.029,0.0015294869663193822,-0.00014116660167928785,0.027299853041768074,-0.00048453250201418996,0.0004231864004395902,0.004106486216187477,-0.23690053820610046,0.6056148409843445,-0.10323869436979294,0.027299853041768074,0.004113105591386557,3.06521360471379e-06,0.0001837455201894045,4.138416290283203,90.0,0.0,0.0,0.0,0.0,0.0,32.766,32.766,0.227,32.766,2.862,2019.1441650390625,809.9070434570312,30.324825286865234,,False,
1783700463.8257523,2026-07-10T09:21:03,56266,20260710_092058,,,,,,ground_idle,,,,,,,,,False,0.009576371870934963,-0.004640958271920681,1.0023237466812134,-0.09003305435180664,-0.3208335041999817,-0.1367615908384323,0.0,-1.0,97.0,29.0,0.029,0.0015294869663193822,-0.00014116660167928785,0.027299853041768074,-0.00048453250201418996,0.0004231864004395902,0.004106486216187477,-0.23690053820610046,0.6056148409843445,-0.10323869436979294,0.027299853041768074,0.004113105591386557,3.06521360471379e-06,0.0001837455201894045,4.138416290283203,90.0,0.0,0.0,0.0,0.0,0.0,32.766,32.766,0.227,32.766,2.862,2019.1441650390625,809.9070434570312,30.324825286865234,,False,
1783700463.8359125,2026-07-10T09:21:03,56276,20260710_092058,,,,,,ground_idle,,,,,,,,,False,0.0095826992765069,-0.004919134546071291,1.0017445087432861,-0.07182838022708893,-0.03522935137152672,0.11975956708192825,3.0,1.0,99.0,29.0,0.029,0.0017710663378238678,-0.00013792270328849554,0.0273846797645092,0.0007745540933683515,7.856911543058231e-05,0.004405839368700981,-0.2361798733472824,0.5960841178894043,-0.1034148633480072,0.027299853041768074,0.004113105591386557,3.06521360471379e-06,0.0001837455201894045,4.138416290283203,90.0,0.0,0.0,0.0,0.0,0.0,32.766,32.766,0.227,32.766,2.862,2019.1441650390625,809.9070434570312,30.324825286865234,,False,
1783700463.8460636,2026-07-10T09:21:03,56286,20260710_092058,,,,,,ground_idle,,,,,,,,,False,0.012065393850207329,-0.0039633046835660934,1.0000289678573608,0.10265742987394333,-0.0827421322464943,-0.018937071785330772,-1.0,-4.0,76.0,29.0,0.029,0.0017710663378238678,-0.00013792270328849554,0.0273846797645092,0.0007745540933683515,7.856911543058231e-05,0.004405839368700981,-0.2361798733472824,0.5960841178894043,-0.1034148633480072,0.027299853041768074,0.004113105591386557,3.06521360471379e-06,0.0001837455201894045,4.138416290283203,90.0,0.0,0.0,0.0,0.0,0.0,32.766,32.766,0.227,32.766,2.862,2019.1441650390625,809.9070434570312,30.324825286865234,,False,
1783700463.8562431,2026-07-10T09:21:03,56296,20260710_092058,,,,,,ground_idle,,,,,,,,,False,0.009628433734178543,-0.0043664490804076195,0.9997590184211731,0.09287630766630173,0.3149213194847107,0.20067155361175537,-1.0,0.0,76.0,24.0,0.024,0.0025088763795793056,-0.0006340004620142281,0.027481941506266594,0.004442164674401283,-0.0023413568269461393,0.00468955235555768,-0.21698987483978271,0.5640644431114197,-0.10264607518911362,0.027299853041768074,0.004113105591386557,3.06521360471379e-06,0.0001837455201894045,4.138416290283203,90.0,0.0,0.0,0.0,0.0,0.0,32.766,32.766,0.227,32.766,2.862,2019.1441650390625,809.9070434570312,30.324825286865234,,False,
1783700463.8664083,2026-07-10T09:21:03,56306,20260710_092058,,,,,,ground_idle,,,,,,,,,False,0.012127322144806385,-0.002296371851116419,1.0007976293563843,0.29561400413513184,0.03340119123458862,-0.17842891812324524,-1.0,3.0,96.0,24.0,0.024,0.0025088763795793056,-0.0006340004620142281,0.027481941506266594,0.004442164674401283,-0.0023413568269461393,0.00468955235555768,-0.21698987483978271,0.5640644431114197,-0.10264607518911362,0.02595878578722477,-0.0031345176976174116,2.981690613523824e-06,0.00017857567581813782,4.138416290283203,90.0,0.0,0.0,0.0,0.0,0.0,32.766,32.766,0.228,32.766,2.837,2019.1441650390625,809.9070434570312,30.324825286865234,,False,
1783700463.8765569,2026-07-10T09:21:03,56316,20260710_092058,,,,,,ground_idle,,,,,,,,,False,0.011329598724842072,-0.002875077072530985,0.9990396499633789,0.15373849868774414,0.3154188394546509,0.12146550416946411,1.0,1.0,96.0,24.0,0.024,0.0017894026823341846,-0.00015133140550460666,0.025932079181075096,0.000561537453904748,0.0002580119180493057,-0.0030381057877093554,-0.2349250167608261,0.5922797918319702,-0.10295179486274719,0.02595878578722477,-0.0031345176976174116,2.981690613523824e-06,0.00017857567581813782,4.138416290283203,90.0,0.0,0.0,0.0,0.0,0.0,32.766,32.766,0.228,32.766,2.837,2019.1441650390625,809.9070434570312,30.324825286865234,,False,
1783700463.8867216,2026-07-10T09:21:03,56326,20260710_092058,,,,,,ground_idle,,,,,,,,,False,0.011369382962584496,-0.00295287580229342,0.9974491596221924,0.10118401050567627,-0.19124752283096313,0.010696517303586006,-1.0,1.0,101.0,24.0,0.024,0.0017894026823341846,-0.00015133140550460666,0.025932079181075096,0.000561537453904748,0.0002580119180493057,-0.0030381057877093554,-0.2349250167608261,0.5922797918319702,-0.10295179486274719,0.02595878578722477,-0.0031345176976174116,2.981690613523824e-06,0.00017857567581813782,4.138416290283203,90.0,0.0,0.0,0.0,0.0,0.0,32.766,32.766,0.228,32.766,2.837,2019.1441650390625,809.9070434570312,30.324825286865234,,False,
1783700463.8968763,2026-07-10T09:21:03,56336,20260710_092058,,,,,,ground_idle,,,,,,,,,False,0.012048126198351383,-0.0043230000883340836,0.9990050196647644,-0.10218686610460281,0.09576216340065002,0.04869585111737251,1.0,0.0,104.0,27.0,0.027,0.0013166244607418776,-0.00015669221465941519,0.02586960978806019,-0.001552580506540835,0.0005187558708712459,-0.0032303843181580305,-0.23249682784080505,0.6076721549034119,-0.10285283625125885,0.02595878578722477,-0.0031345176976174116,2.981690613523824e-06,0.00017857567581813782,4.138416290283203,90.0,0.0,0.0,0.0,0.0,0.0,32.766,32.766,0.228,32.766,2.837,2019.1441650390625,809.9070434570312,30.324825286865234,,False,
1783700463.907028,2026-07-10T09:21:03,56346,20260710_092058,,,,,,ground_idle,,,,,,,,,False,0.011201096698641777,-0.003143168520182371,0.9988911747932434,-0.004253878723829985,-0.012249290943145752,-0.10959930717945099,0.0,0.0,95.0,27.0,0.027,0.0013166244607418776,-0.00015669221465941519,0.02586960978806019,-0.001552580506540835,0.0005187558708712459,-0.0032303843181580305,-0.23249682784080505,0.6076721549034119,-0.10285283625125885,0.02595878578722477,-0.0031345176976174116,2.981690613523824e-06,0.00017857567581813782,4.138416290283203,90.0,0.0,0.0,0.0,0.0,0.0,32.766,32.766,0.228,32.766,2.837,2019.1441650390625,809.9070434570312,30.324825286865234,,False,
1783700463.917212,2026-07-10T09:21:03,56356,20260710_092058,,,,,,ground_idle,,,,,,,,,False,0.009127838537096977,-0.004050662741065025,1.0011636018753052,-0.21865148842334747,-0.23166221380233765,-0.21918539702892303,0.0,0.0,89.0,27.0,0.027,0.001301617594435811,-0.0003980677283834666,0.026296675205230713,-0.0012561589246615767,-0.0006238298956304789,-0.0011618038406595588,-0.22185730934143066,0.6064811944961548,-0.10273247957229614,0.026296675205230713,-0.001150872209109366,3.0652122404717375e-06,0.00018374600040260702,4.138416290283203,90.0,0.0,0.0,0.0,0.0,0.0,32.766,32.766,0.228,32.766,2.837,2019.177001953125,809.904052734375,30.33516502380371,,False,
1783700463.927397,2026-07-10T09:21:03,56366,20260710_092058,,,,,,ground_idle,,,,,,,,,False,0.011090894229710102,-0.004018312320113182,1.0007926225662231,-0.14334912598133087,0.028612110763788223,0.07503314316272736,0.0,0.0,99.0,27.0,0.027,0.001301617594435811,-0.0003980677283834666,0.026296675205230713,-0.0012561589246615767,-0.0006238298956304789,-0.0011618038406595588,-0.22185730934143066,0.6064811944961548,-0.10273247957229614,0.026296675205230713,-0.001150872209109366,3.0652122404717375e-06,0.00018374600040260702,4.138416290283203,90.0,0.0,0.0,0.0,0.0,0.0,32.766,32.766,0.228,32.766,2.837,2019.177001953125,809.904052734375,30.33516502380371,,False,
1783700463.9375484,2026-07-10T09:21:03,56376,20260710_092058,,,,,,ground_idle,,,,,,,,,False,0.010881908237934113,-0.00482823234051466,0.9999638199806213,0.06950698792934418,-0.1278366595506668,-0.2605650722980499,3.0,-2.0,100.0,27.0,0.027,0.0012750023743137717,-0.00040989663102664053,0.026274600997567177,-0.00140031345654279,-0.0005859625525772572,-0.001016142196021974,-0.22237606346607208,0.6068918704986572,-0.1026969626545906,0.026296675205230713,-0.001150872209109366,3.0652122404717375e-06,0.00018374600040260702,4.138416290283203,90.0,0.0,0.0,0.0,0.0,0.0,32.766,32.766,0.228,32.766,2.837,2019.177001953125,809.904052734375,30.33516502380371,,False,
1783700463.9476974,2026-07-10T09:21:03,56386,20260710_092058,,,,,,ground_idle,,,,,,,,,False,0.011906343512237072,-0.004292069468647242,0.9993127584457397,0.1559988260269165,0.015101319178938866,-0.10001154989004135,-4.0,-2.0,77.0,27.0,0.027,0.0012750023743137717,-0.00040989663102664053,0.026274600997567177,-0.00140031345654279,-0.0005859625525772572,-0.001016142196021974,-0.22237606346607208,0.6068918704986572,-0.1026969626545906,0.026296675205230713,-0.001150872209109366,3.0652122404717375e-06,0.00018374600040260702,4.138416290283203,90.0,0.0,0.0,0.0,0.0,0.0,32.766,32.766,0.228,32.766,2.837,2019.177001953125,809.904052734375,30.33516502380371,,False,
1783700463.9578624,2026-07-10T09:21:03,56396,20260710_092058,,,,,,ground_idle,,,,,,,,,False,0.010441240854561329,-0.0025428154040127993,1.002962350845337,-0.12118932604789734,-0.2541305422782898,0.03334566578269005,1.0,0.0,79.0,27.0,0.027,0.0023595322854816914,-0.0001407100207870826,0.02626507170498371,0.004203601274639368,0.000791336118709296,-0.0009627044200897217,-0.23404167592525482,0.563668966293335,-0.10456451773643494,0.026296675205230713,-0.001150872209109366,3.0652122404717375e-06,0.00018374600040260702,4.138416290283203,90.0,0.0,0.0,0.0,0.0,0.0,32.766,32.766,0.228,32.766,2.837,2019.177001953125,809.904052734375,30.33516502380371,,False,
1783700463.96806,2026-07-10T09:21:03,56409,20260710_092058,,,,,,ground_idle,,,,,,,,,False,0.008568661287426949,-0.002138999756425619,1.0023926496505737,-0.18814000487327576,-0.5511904954910278,0.054827187210321426,0.0,2.0,97.0,27.0,0.027,0.0017955601215362549,-0.00039790256414562464,0.026601500809192657,0.0010328933130949736,-0.00020077719818800688,0.0011591212823987007,-0.23404167592525482,0.563668966293335,-0.10456451773643494,0.026588814333081245,0.0008541463757865131,2.9817040285706753e-06,0.00017857698549050838,4.138416290283203,90.0,0.0,0.0,0.0,0.0,0.0,32.766,0.373,0.227,32.766,2.843,2019.177001953125,809.904052734375,30.33516502380371,,False,
1783700463.978254,2026-07-10T09:21:03,56416,20260710_092058,,,,,,ground_idle,,,,,,,,,False,0.011504469439387321,-0.0024512335658073425,0.9989962577819824,-0.1197875589132309,0.09781115502119064,-0.15687140822410583,0.0,0.0,98.0,27.0,0.027,0.0017955601215362549,-0.00039790256414562464,0.026601500809192657,0.0010328933130949736,-0.00020077719818800688,0.0011591212823987007,-0.22376707196235657,0.5928413271903992,-0.1037958413362503,0.026588814333081245,0.0008541463757865131,2.9817040285706753e-06,0.00017857698549050838,4.138416290283203,90.0,0.0,0.0,0.0,0.0,0.0,32.766,0.373,0.227,32.766,2.843,2019.177001953125,809.904052734375,30.33516502380371,,False,
1783700463.9884562,2026-07-10T09:21:03,56429,20260710_092058,,,,,,ground_idle,,,,,,,,,False,0.011431696824729443,-0.006273022852838039,1.0016210079193115,-0.10003750026226044,0.042021844536066055,-0.07510874420404434,-1.0,4.0,103.0,27.0,0.027,0.0007199547835625708,-0.00012481579324230552,0.02662450447678566,-0.004234003368765116,0.0012309416197240353,0.0011999671114608645,-0.22376707196235657,0.5928413271903992,-0.1037958413362503,0.026588814333081245,0.0008541463757865131,2.9817040285706753e-06,0.00017857698549050838,4.138416290283203,90.0,0.0,0.0,0.0,0.0,0.0,32.766,0.373,0.227,32.766,2.843,2019.177001953125,809.904052734375,30.33516502380371,,False,
1783700463.9987216,2026-07-10T09:21:03,56436,20260710_092058,,,,,,ground_idle,,,,,,,,,False,0.011166462674736977,-0.005403558257967234,1.0001709461212158,0.34019574522972107,0.1736169308423996,0.1009725034236908,4.0,-2.0,98.0,25.0,0.025,0.0007199547835625708,-0.00012481579324230552,0.02662450447678566,-0.004234003368765116,0.0012309416197240353,0.0011999671114608645,-0.23579823970794678,0.6316270232200623,-0.1049482673406601,0.026588814333081245,0.0008541463757865131,2.9817040285706753e-06,0.00017857698549050838,4.138416290283203,90.0,0.0,0.0,0.0,0.0,0.0,32.766,0.373,0.227,32.766,2.843,2019.177001953125,809.904052734375,30.33516502380371,,False,
1783700464.0088906,2026-07-10T09:21:04,56450,20260710_092058,,,,,,ground_idle,,,,,,,,,False,0.010908256284892559,-0.0051922365091741085,1.0006015300750732,-0.11713271588087082,0.01177918165922165,0.033130399882793427,-3.0,-2.0,94.0,25.0,0.025,0.0018118602456524968,-0.00040054525015875697,0.02595185860991478,0.001457498292438686,-0.00034846432390622795,-0.001960483845323324,-0.22577999532222748,0.5844382047653198,-0.10476068407297134,0.026588814333081245,0.0008541463757865131,2.9817040285706753e-06,0.00017857698549050838,4.138416290283203,90.0,0.0,0.0,0.0,0.0,0.0,32.766,0.373,0.227,32.766,2.843,2019.177001953125,809.904052734375,30.33516502380371,,False,
1783700464.0190587,2026-07-10T09:21:04,56456,20260710_092058,,,,,,ground_idle,,,,,,,,,False,0.009050978347659111,-0.005324252415448427,0.999300479888916,-0.06668868660926819,-0.08935780823230743,0.04690428450703621,0.0,0.0,93.0,25.0,0.025,0.0018118602456524968,-0.00040054525015875697,0.02595185860991478,0.001457498292438686,-0.00034846432390622795,-0.001960483845323324,-0.22577999532222748,0.5844382047653198,-0.10476068407297134,0.02595185860991478,-0.0019766062032431364,3.0651947326987283e-06,0.00018374658247921616,4.138416290283203,90.0,0.0,0.0,0.0,0.0,0.0,32.766,0.373,0.227,32.766,2.843,2019.253662109375,809.8969116210938,30.335880279541016,,False,
1783700464.0292919,2026-07-10T09:21:04,56470,20260710_092058,,,,,,ground_idle,,,,,,,,,False,0.010949714109301567,-0.004933340474963188,0.9985437989234924,0.002604435896500945,0.45172393321990967,0.0014912059996277094,0.0,0.0,94.0,25.0,0.025,0.0018401083070784807,-0.00041033310117200017,0.02591169998049736,0.0014363258378580213,-0.0005963371368125081,-0.0021133313421159983,-0.22778445482254028,0.583516001701355,-0.10289604216814041,0.02595185860991478,-0.0019766062032431364,3.0651947326987283e-06,0.00018374658247921616,4.138416290283203,90.0,0.0,0.0,0.0,0.0,0.0,32.766,0.373,0.227,32.766,2.843,2019.253662109375,809.8969116210938,30.335880279541016,,False,
1783700464.0394566,2026-07-10T09:21:04,56476,20260710_092058,,,,,,ground_idle,,,,,,,,,False,0.008252854458987713,-0.004806360229849815,1.0006048679351807,0.09768060594797134,0.2935929596424103,0.014460636302828789,3.0,0.0,102.0,25.0,0.025,0.0018401083070784807,-0.00041033310117200017,0.02591169998049736,0.0014363258378580213,-0.0005963371368125081,-0.0021133313421159983,-0.22778445482254028,0.583516001701355,-0.10289604216814041,0.02595185860991478,-0.0019766062032431364,3.0651947326987283e-06,0.00018374658247921616,4.138416290283203,90.0,0.0,0.0,0.0,0.0,0.0,32.766,0.373,0.227,32.766,2.843,2019.253662109375,809.8969116210938,30.335880279541016,,False,
1783700464.0496182,2026-07-10T09:21:04,56490,20260710_092058,,,,,,ground_idle,,,,,,,,,False,0.009577698074281216,-0.0038223506417125463,1.0018577575683594,0.13674387335777283,-0.2717527449131012,-0.18003930151462555,-4.0,0.0,79.0,25.0,0.025,0.0018287997227162123,-0.00012365959992166609,0.025878464803099632,0.0010161736281588674,0.0009157473687082529,-0.0019638186786323786,-0.2399437576532364,0.5833785533905029,-0.10291877388954163,0.02595185860991478,-0.0019766062032431364,3.0651947326987283e-06,0.00018374658247921616,4.138416290283203,90.0,0.0,0.0,0.0,0.0,0.0,32.766,0.373,0.227,32.766,2.843,2019.253662109375,809.8969116210938,30.335880279541016,,False,
1783700464.0597782,2026-07-10T09:21:04,56496,20260710_092058,,,,,,ground_idle,,,,,,,,,False,0.00945220235735178,-0.0036157567519694567,1.003379464149475,-0.08409721404314041,0.4267421364784241,-0.2430546134710312,0.0,-3.0,77.0,26.0,0.026,0.0018287997227162123,-0.00012365959992166609,0.025878464803099632,0.0010161736281588674,0.0009157473687082529,-0.0019638186786323786,-0.2399437576532364,0.5833785533905029,-0.10291877388954163,0.02595185860991478,-0.0019766062032431364,3.0651947326987283e-06,0.00018374658247921616,4.138416290283203,90.0,0.0,0.0,0.0,0.0,0.0,32.766,0.373,0.227,32.766,2.843,2019.253662109375,809.8969116210938,30.335880279541016,,False,
1783700464.069937,2026-07-10T09:21:04,56510,20260710_092058,,,,,,ground_idle,,,,,,,,,False,0.012025799602270126,-0.003562488593161106,1.0003533363342285,-0.022011183202266693,0.023898376151919365,-0.006890550255775452,0.0,5.0,96.0,26.0,0.026,0.0012814296642318368,-0.00012812735803890973,0.025909077376127243,-0.0019140092190355062,0.0009419341804459691,-0.0012380783446133137,-0.23895598948001862,0.6017472743988037,-0.10389719158411026,0.025914741680026054,-0.001472226926125586,2.981696752613061e-06,0.00017857753846328706,4.1331377029418945,90.0,0.0,0.0,0.0,0.0,0.0,0.311,32.766,0.229,32.766,2.852,2019.253662109375,809.8969116210938,30.335880279541016,,False,
1783700464.0801015,2026-07-10T09:21:04,56516,20260710_092058,,,,,,ground_idle,,,,,,,,,False,0.01305362954735756,-0.003279068972915411,1.0012353658676147,-0.03125634416937828,0.12221942096948624,-0.112518310546875,0.0,-2.0,93.0,26.0,0.026,0.0012814296642318368,-0.00012812735803890973,0.025909077376127243,-0.0019140092190355062,0.0009419341804459691,-0.0012380783446133137,-0.23895598948001862,0.6017472743988037,-0.10389719158411026,0.025914741680026054,-0.001472226926125586,2.981696752613061e-06,0.00017857753846328706,4.1331377029418945,90.0,0.0,0.0,0.0,0.0,0.0,0.311,32.766,0.229,32.766,2.852,2019.253662109375,809.8969116210938,30.335880279541016,,False,
1783700464.0903955,2026-07-10T09:21:04,56530,20260710_092058,,,,,,ground_idle,,,,,,,,,False,0.011752751655876637,-0.004017532337456942,0.9996930360794067,-0.03318491578102112,-0.15208466351032257,0.04883807897567749,4.0,1.0,97.0,26.0,0.026,0.0015575408469885588,-0.0012002147268503904,0.025891141965985298,-9.010562644107267e-05,-0.004203652031719685,-0.0010492956498637795,-0.1982153356075287,0.5903422832489014,-0.10308729112148285,0.025914741680026054,-0.001472226926125586,2.981696752613061e-06,0.00017857753846328706,4.1331377029418945,90.0,0.0,0.0,0.0,0.0,0.0,0.311,32.766,0.229,32.766,2.852,2019.253662109375,809.8969116210938,30.335880279541016,,False,
1783700464.100557,2026-07-10T09:21:04,56536,20260710_092058,,,,,,ground_idle,,,,,,,,,False,0.01038393285125494,-0.004003888927400112,1.000372290611267,-0.10950467735528946,-0.1450410932302475,-0.16202063858509064,-4.0,-1.0,98.0,29.0,0.029,0.0015575408469885588,-0.0012002147268503904,0.025891141965985298,-9.010562644107267e-05,-0.004203652031719685,-0.0010492956498637795,-0.1982153356075287,0.5903422832489014,-0.10308729112148285,0.025914741680026054,-0.001472226926125586,2.981696752613061e-06,0.00017857753846328706,4.1331377029418945,90.0,0.0,0.0,0.0,0.0,0.0,0.311,32.766,0.229,32.766,2.852,2019.253662109375,809.8969116210938,30.335880279541016,,False,
1783700464.1107192,2026-07-10T09:21:04,56550,20260710_092058,,,,,,arming,,,,,,,,,False,0.008397729136049747,-0.004747656639665365,0.998354434967041,0.17986948788166046,0.30581140518188477,0.045546527951955795,0.0,1.0,81.0,29.0,0.029,0.0015508285723626614,-0.0001391893019899726,0.02723439782857895,-0.00021928516798652709,0.0010167656000703573,0.005375148728489876,-0.23815886676311493,0.5905748009681702,-0.10356072336435318,0.025914741680026054,-0.001472226926125586,2.981696752613061e-06,0.00017857753846328706,4.1331377029418945,90.0,0.0,0.0,0.0,0.0,0.0,0.311,32.766,0.229,32.766,2.852,2019.253662109375,809.8969116210938,30.335880279541016,,False,
1783700464.120907,2026-07-10T09:21:04,56556,20260710_092058,,,,,,arming,,,,,,,,,False,0.011073597706854343,-0.0021791348699480295,1.0009897947311401,0.17620277404785156,-0.13233894109725952,0.10601597279310226,3.0,0.0,92.0,29.0,0.029,0.0015508285723626614,-0.0001391893019899726,0.02723439782857895,-0.00021928516798652709,0.0010167656000703573,0.005375148728489876,-0.23815886676311493,0.5905748009681702,-0.10356072336435318,0.02723439782857895,0.005381331313401461,3.0652190616820008e-06,0.00018374640785623342,4.138416290283203,90.0,0.0,0.0,0.0,0.0,0.0,0.311,32.766,0.229,32.766,2.852,2019.2425537109375,809.8982543945312,30.341278076171875,,False,
1783700464.1310894,2026-07-10T09:21:04,56570,20260710_092058,,,,,,arming,,,,,,,,,False,0.010114428587257862,-0.004353750962764025,1.0011006593704224,0.05367661640048027,-0.5353225469589233,0.1037791520357132,-1.0,0.0,99.0,29.0,0.029,0.0015406862366944551,-0.0006540289032272995,0.02734484151005745,-0.00024045685131568462,-0.0012976943980902433,0.005495656747370958,-0.21828781068325043,0.5913899540901184,-0.10359852015972137,0.02723439782857895,0.005381331313401461,3.0652190616820008e-06,0.00018374640785623342,4.138416290283203,90.0,0.0,0.0,0.0,0.0,0.0,0.311,32.766,0.229,32.766,2.852,2019.2425537109375,809.8982543945312,30.341278076171875,,False,
1783700464.1413064,2026-07-10T09:21:04,56576,20260710_092058,,,,,,arming,,,,,,,,,False,0.010180195793509483,-0.003260186640545726,0.9993038773536682,-0.06939475983381271,-0.16603177785873413,-0.05444782227277756,2.0,-1.0,96.0,29.0,0.029,0.0015406862366944551,-0.0006540289032272995,0.02734484151005745,-0.00024045685131568462,-0.0012976943980902433,0.005495656747370958,-0.21828781068325043,0.5913899540901184,-0.10359852015972137,0.02723439782857895,0.005381331313401461,3.0652190616820008e-06,0.00018374640785623342,4.138416290283203,90.0,0.0,0.0,0.0,0.0,0.0,0.311,32.766,0.229,32.766,2.852,2019.2425537109375,809.8982543945312,30.341278076171875,,False,
1783700464.1516793,2026-07-10T09:21:04,56590,20260710_092058,,,,,,arming,,,,,,,,,False,0.011399359442293644,-0.0029846257530152798,1.0021711587905884,-0.08518799394369125,0.02572580799460411,0.0696498453617096,-3.0,1.0,86.0,29.0,0.029,0.0015399076510220766,-0.0003962457994930446,0.02746013179421425,-0.0002415091439615935,0.00022184127010405064,0.0055830213241279125,-0.23005294799804688,0.5933342576026917,-0.10205966979265213,0.02723439782857895,0.005381331313401461,3.0652190616820008e-06,0.00018374640785623342,4.138416290283203,90.0,0.0,0.0,0.0,0.0,0.0,0.311,32.766,0.229,32.766,2.852,2019.2425537109375,809.8982543945312,30.341278076171875,,False,
1783700464.1619034,2026-07-10T09:21:04,56602,20260710_092058,,,,,,arming,,,,,,,,,False,0.01055260468274355,-0.003995832987129688,1.0019365549087524,-0.33673760294914246,0.03325672447681427,-0.09613894671201706,0.0,0.0,76.0,25.0,0.025,0.0015399076510220766,-0.0003962457994930446,0.02746013179421425,-0.0002415091439615935,0.00022184127010405064,0.0055830213241279125,-0.23005294799804688,0.5933342576026917,-0.10205966979265213,0.026407213881611824,0.00031150112044997513,2.9817031190759735e-06,0.00017857721832115203,4.1331377029418945,90.0,0.0,7000.0,7000.0,7000.0,7000.0,0.311,32.766,0.229,32.766,2.852,2019.2425537109375,809.8982543945312,30.341278076171875,,False,
1783700464.1721122,2026-07-10T09:21:04,56610,20260710_092058,,,,,,arming,,,,,,,,,False,0.010485178790986538,-0.005706404335796833,0.9983276128768921,-0.1913156807422638,0.26843512058258057,0.0567549429833889,0.0,0.0,94.0,25.0,0.025,0.0015474860556423664,-0.0003952030383516103,0.026410013437271118,-0.00012948931544087827,0.00010205036960542202,0.0002510639023967087,-0.23247364163398743,0.5901196002960205,-0.10227829217910767,0.026407213881611824,0.00031150112044997513,2.9817031190759735e-06,0.00017857721832115203,4.1331377029418945,90.0,0.0,7000.0,7000.0,7000.0,7000.0,0.307,0.372,0.224,32.766,2.859,2019.2425537109375,809.8982543945312,30.341278076171875,,False,
1783700464.1823256,2026-07-10T09:21:04,56624,20260710_092058,,,,,,arming,,,,,,,,,False,0.013887639157474041,-0.003924995195120573,1.0044474601745605,-0.06114330515265465,-0.06137389317154884,-0.22862467169761658,0.0,0.0,96.0,25.0,0.025,0.0015474860556423664,-0.0003952030383516103,0.026410013437271118,-0.00012948931544087827,0.00010205036960542202,0.0002510639023967087,-0.23247364163398743,0.5901196002960205,-0.10227829217910767,0.026407213881611824,0.00031150112044997513,2.9817031190759735e-06,0.00017857721832115203,4.1331377029418945,90.0,0.0,7000.0,7000.0,7000.0,7000.0,0.307,0.372,0.224,32.766,2.859,2019.2425537109375,809.8982543945312,30.341278076171875,,False,
1783700464.192514,2026-07-10T09:21:04,56630,20260710_092058,,,,,,arming,,,,,,,,,False,0.013887639157474041,-0.003924995195120573,1.0044474601745605,-0.06114330515265465,-0.06137389317154884,-0.22862467169761658,2.0,1.0,104.0,25.0,0.025,0.0012601213529706001,-0.0009606454405002296,0.02641572803258896,-0.001138540101237595,-0.0027116541750729084,0.0004983178223483264,-0.21237322688102722,0.6000231504440308,-0.10352431982755661,0.026407213881611824,0.00031150112044997513,2.9817031190759735e-06,0.00017857721832115203,4.1331377029418945,90.0,0.0,7000.0,7000.0,7000.0,7000.0,0.307,0.372,0.224,32.766,2.859,2019.2425537109375,809.8982543945312,30.341278076171875,,False,
1783700464.2027042,2026-07-10T09:21:04,56644,20260710_092058,,,,,,arming,,,,,,,,,False,0.01239124033600092,-0.0018084320472553372,1.001037359237671,-0.06773028522729874,0.24727295339107513,-0.009749608114361763,-1.0,0.0,93.0,27.0,0.027,0.0012601213529706001,-0.0009606454405002296,0.02641572803258896,-0.001138540101237595,-0.0027116541750729084,0.0004983178223483264,-0.21237322688102722,0.6000231504440308,-0.10352431982755661,0.026407213881611824,0.00031150112044997513,2.9817031190759735e-06,0.00017857721832115203,4.1331377029418945,90.0,0.0,7000.0,7000.0,7000.0,7000.0,0.307,0.372,0.224,32.766,2.859,2019.2425537109375,809.8982543945312,30.341278076171875,,False,
1783700464.2128918,2026-07-10T09:21:04,56654,20260710_092058,,,,,,arming,,,,,,,,,False,0.01239124033600092,-0.0018084320472553372,1.001037359237671,-0.06773028522729874,0.24727295339107513,-0.009749608114361763,1.0,-2.0,80.0,27.0,0.027,0.0018211298156529665,-0.0009401778224855661,0.026688896119594574,0.002164865145459771,-0.0021731413435190916,0.0022240164689719677,-0.21437643468379974,0.575316846370697,-0.10316310822963715,0.026688896119594574,0.002194000408053398,3.065224291276536e-06,0.00018374748469796032,4.138416290283203,90.0,0.0,7000.0,7000.0,7000.0,7000.0,0.307,0.372,0.224,32.766,2.859,2019.248046875,809.8973999023438,30.346477508544922,,False,
1783700464.2230787,2026-07-10T09:21:04,56656,20260710_092058,,,,,,arming,,,,,,,,,False,0.010885335505008698,-0.003765081288293004,1.0022317171096802,-0.0453844778239727,-0.1440390944480896,-0.019442133605480194,-2.0,1.0,93.0,27.0,0.027,0.0018211298156529665,-0.0009401778224855661,0.026688896119594574,0.002164865145459771,-0.0021731413435190916,0.0022240164689719677,-0.21437643468379974,0.575316846370697,-0.10316310822963715,0.026688896119594574,0.002194000408053398,3.065224291276536e-06,0.00018374748469796032,4.138416290283203,90.0,0.0,7000.0,7000.0,7000.0,7000.0,0.307,0.372,0.224,32.766,2.859,2019.248046875,809.8973999023438,30.346477508544922,,False,
1783700464.2333908,2026-07-10T09:21:04,56674,20260710_092058,,,,,,arming,,,,,,,,,False,0.011281240731477737,-0.0055214157328009605,1.0007284879684448,-0.2059670090675354,0.03887966275215149,0.027888623997569084,0.0,0.0,99.0,27.0,0.027,0.001549562788568437,-0.00038107100408524275,0.026738837361335754,0.0008619002182967961,0.0006667078705504537,0.0025786326732486486,-0.23363018035888672,0.587826132774353,-0.10475105792284012,0.026688896119594574,0.002194000408053398,3.065224291276536e-06,0.00018374748469796032,4.138416290283203,90.0,0.0,7000.0,7000.0,7000.0,7000.0,0.307,0.372,0.224,32.766,2.859,2019.248046875,809.8973999023438,30.346477508544922,,False,
1783700464.243585,2026-07-10T09:21:04,56684,20260710_092058,,,,,,arming,,,,,,,,,False,0.010922807268798351,-0.004364729858934879,1.0000556707382202,0.1616833657026291,-0.1978502720594406,-0.32312652468681335,0.0,-1.0,94.0,27.0,0.027,0.001549562788568437,-0.00038107100408524275,0.026738837361335754,0.0008619002182967961,0.0006667078705504537,0.0025786326732486486,-0.23363018035888672,0.587826132774353,-0.10475105792284012,0.026688896119594574,0.002194000408053398,3.065224291276536e-06,0.00018374748469796032,4.138416290283203,90.0,0.0,7000.0,7000.0,7000.0,7000.0,0.307,0.372,0.224,32.766,2.859,2019.248046875,809.8973999023438,30.346477508544922,,False,
1783700464.2537553,2026-07-10T09:21:04,56694,20260710_092058,,,,,,arming,,,,,,,,,False,0.011634455062448978,-0.004456514958292246,1.0000436305999756,0.023197369650006294,0.3432480990886688,0.23832467198371887,0.0,-2.0,82.0,27.0,0.027,0.0023687873035669327,-0.0003875396214425564,0.02679014392197132,0.0048638153821229935,0.0004043819208163768,0.002669620793312788,-0.2325577586889267,0.5575733184814453,-0.10556689649820328,0.026688896119594574,0.002194000408053398,3.065224291276536e-06,0.00018374748469796032,4.138416290283203,90.0,0.0,7000.0,7000.0,7000.0,7000.0,0.307,0.372,0.224,32.766,2.859,2019.248046875,809.8973999023438,30.346477508544922,,False,
1783700464.2639258,2026-07-10T09:21:04,56704,20260710_092058,,,,,,arming,,,,,,,,,False,0.011634455062448978,-0.004456514958292246,1.0000436305999756,0.023197369650006294,0.3432480990886688,0.23832467198371887,0.0,3.0,76.0,25.0,0.025,0.0023687873035669327,-0.0003875396214425564,0.02679014392197132,0.0048638153821229935,0.0004043819208163768,0.002669620793312788,-0.2325577586889267,0.5575733184814453,-0.10556689649820328,0.02601321041584015,-0.0013719244161620736,2.981702436954947e-06,0.00017857651982922107,4.138416290283203,90.0,0.0,7000.0,7000.0,7000.0,7000.0,0.308,32.766,0.226,32.766,2.84,2019.248046875,809.8973999023438,30.346477508544922,,False,
1783700464.274088,2026-07-10T09:21:04,56714,20260710_092058,,,,,,arming,,,,,,,,,False,0.010337634943425655,-0.0037726331502199173,1.0003416538238525,0.21305537223815918,-0.10757681727409363,0.1025586649775505,0.0,1.0,93.0,25.0,0.025,0.0012815474765375257,-0.00039650924736633897,0.026000145822763443,-0.00042621951433829963,0.00019121421792078763,-0.0012343971757218242,-0.22979460656642914,0.5971136689186096,-0.10025329887866974,0.02601321041584015,-0.0013719244161620736,2.981702436954947e-06,0.00017857651982922107,4.138416290283203,90.0,0.0,7000.0,7000.0,7000.0,7000.0,0.308,32.766,0.226,32.766,2.84,2019.248046875,809.8973999023438,30.346477508544922,,False,
1783700464.2843127,2026-07-10T09:21:04,56726,20260710_092058,,,,,,arming,,,,,,,,,False,0.008458306081593037,-0.004449980333447456,0.9981416463851929,-0.0339323952794075,0.08703519403934479,-1.05084228515625,0.0,0.0,101.0,25.0,0.025,0.0012815474765375257,-0.00039650924736633897,0.026000145822763443,-0.00042621951433829963,0.00019121421792078763,-0.0012343971757218242,-0.22979460656642914,0.5971136689186096,-0.10025329887866974,0.02601321041584015,-0.0013719244161620736,2.981702436954947e-06,0.00017857651982922107,4.138416290283203,90.0,0.0,7000.0,7000.0,7000.0,7000.0,0.308,32.766,0.226,32.766,2.84,2019.248046875,809.8973999023438,30.346477508544922,,False,
1783700464.2945306,2026-07-10T09:21:04,56736,20260710_092058,,,,,,arming,,,,,,,,,False,0.008370377123355865,-0.0035597989335656166,1.0000240802764893,-0.13106927275657654,0.5866613984107971,-0.3706895112991333,-3.0,-1.0,89.0,27.0,0.027,0.001553827547468245,-0.0012361358385533094,0.02597791701555252,0.0008254527347162366,-0.0037380161229521036,-0.0012040022993460298,-0.19969810545444489,0.5877692699432373,-0.10723168402910233,0.02601321041584015,-0.0013719244161620736,2.981702436954947e-06,0.00017857651982922107,4.138416290283203,90.0,0.0,7000.0,7000.0,7000.0,7000.0,0.308,32.766,0.226,32.766,2.84,2019.248046875,809.8973999023438,30.346477508544922,,False,
1783700464.3046896,2026-07-10T09:21:04,56746,20260710_092058,,,,,,arming,,,,,,,,,False,0.008289795368909836,-0.0019508536206558347,1.000616431236267,0.29937034845352173,-0.24372681975364685,0.37251290678977966,0.0,-2.0,74.0,27.0,0.027,0.001553827547468245,-0.0012361358385533094,0.02597791701555252,0.0008254527347162366,-0.0037380161229521036,-0.0012040022993460298,-0.19969810545444489,0.5877692699432373,-0.10723168402910233,0.02601321041584015,-0.0013719244161620736,2.981702436954947e-06,0.00017857651982922107,4.138416290283203,90.0,0.0,7000.0,7000.0,7000.0,7000.0,0.308,32.766,0.226,32.766,2.84,2019.248046875,809.8973999023438,30.346477508544922,,False,
1783700464.3148482,2026-07-10T09:21:04,56754,20260710_092058,,,,,,arming,,,,,,,,,False,0.008289795368909836,-0.0019508536206558347,1.000616431236267,0.29937034845352173,-0.24372681975364685,0.37251290678977966,0.0,-2.0,74.0,27.0,0.027,0.002370444592088461,-0.00040300560067407787,0.026401236653327942,0.004291413351893425,0.000495362386573106,0.0009082263568416238,-0.23204456269741058,0.555277943611145,-0.09922975301742554,0.026401236653327942,0.000868633680511266,3.065224746023887e-06,0.00018374591309111565,4.117301940917969,90.0,0.0,7000.0,7000.0,7000.0,7000.0,0.308,32.766,0.226,32.766,2.84,2019.1441650390625,809.9066772460938,30.351327896118164,,False,
1783700464.3250196,2026-07-10T09:21:04,56766,20260710_092058,,,,,,arming,,,,,,,,,False,0.00967128574848175,-0.0043893540278077126,1.0026274919509888,-0.08002044260501862,-0.5234249830245972,1.2303602695465088,0.0,3.0,97.0,27.0,0.027,0.002370444592088461,-0.00040300560067407787,0.026401236653327942,0.004291413351893425,0.000495362386573106,0.0009082263568416238,-0.23204456269741058,0.555277943611145,-0.09922975301742554,0.026401236653327942,0.000868633680511266,3.065224746023887e-06,0.00018374591309111565,4.117301940917969,90.0,0.0,7000.0,7000.0,7000.0,7000.0,0.308,32.766,0.226,32.766,2.84,2019.1441650390625,809.9066772460938,30.351327896118164,,False,
1783700464.3352265,2026-07-10T09:21:04,56776,20260710_092058,,,,,,arming,,,,,,,,,False,0.01348568219691515,-0.004690274130553007,1.0006170272827148,0.02014085277915001,0.09662261605262756,0.10235226899385452,0.0,-2.0,87.0,27.0,0.027,0.0012896097032353282,-0.0004028425319120288,0.026427118107676506,-0.0011020557722076774,0.0004223994037602097,0.0013123807730153203,-0.23007461428642273,0.5974462628364563,-0.09728773683309555,0.026401236653327942,0.000868633680511266,3.065224746023887e-06,0.00018374591309111565,4.117301940917969,90.0,0.0,7000.0,7000.0,7000.0,7000.0,0.308,32.766,0.226,32.766,2.84,2019.1441650390625,809.9066772460938,30.351327896118164,,False,
1783700464.3455617,2026-07-10T09:21:04,56786,20260710_092058,,,,,,arming,,,,,,,,,False,0.010348638519644737,-0.0037833736278116703,1.0024539232254028,-0.3142283260822296,-0.3664412200450897,-2.170362710952759,-1.0,-3.0,78.0,27.0,0.027,0.0012896097032353282,-0.0004028425319120288,0.026427118107676506,-0.0011020557722076774,0.0004223994037602097,0.0013123807730153203,-0.23007461428642273,0.5974462628364563,-0.09728773683309555,0.026401236653327942,0.000868633680511266,3.065224746023887e-06,0.00018374591309111565,4.117301940917969,90.0,0.0,7000.0,7000.0,7000.0,7000.0,0.308,32.766,0.226,32.766,2.84,2019.1441650390625,809.9066772460938,30.351327896118164,,False,
1783700464.3557234,2026-07-10T09:21:04,56796,20260710_092058,,,,,,arming,,,,,,,,,False,0.013216638006269932,-0.005467751529067755,1.0023950338363647,-0.2301853448152542,-0.6642328500747681,1.3789920806884766,1.0,0.0,78.0,27.0,0.027,0.00257469923235476,-0.00014701492909807712,0.026457304134964943,0.005347989499568939,0.0014142446452751756,0.001654750551097095,-0.2376805692911148,0.5487093329429626,-0.10096517205238342,0.026401236653327942,0.000868633680511266,3.065224746023887e-06,0.00018374591309111565,4.117301940917969,90.0,0.0,7000.0,7000.0,7000.0,7000.0,0.308,32.766,0.226,32.766,2.84,2019.1441650390625,809.9066772460938,30.351327896118164,,False,
1783700464.3658822,2026-07-10T09:21:04,56806,20260710_092058,,,,,,arming,,,,,,,,,False,0.012391477823257446,-0.0051350281573832035,0.9981255531311035,-0.11536330729722977,0.17584022879600525,0.6553415060043335,-1.0,3.0,96.0,27.0,0.027,0.00257469923235476,-0.00014701492909807712,0.026457304134964943,0.005347989499568939,0.0014142446452751756,0.001654750551097095,-0.2376805692911148,0.5487093329429626,-0.10096517205238342,0.0267206821590662,0.003024837700650096,2.9817108497809386e-06,0.00017857539933174849,4.117301940917969,90.0,0.0,7000.0,7000.0,7000.0,7000.0,0.302,32.766,0.23,32.766,2.859,2019.1441650390625,809.9066772460938,30.351327896118164,,False,
1783700464.3760445,2026-07-10T09:21:04,56816,20260710_092058,,,,,,arming,,,,,,,,,False,0.012085504829883575,0.0006344339344650507,0.9998614192008972,0.20762868225574493,0.8247737884521484,-0.9940763711929321,0.0,1.0,96.0,27.0,0.027,0.001788420951925218,-0.0001455659221392125,0.02675638720393181,0.0015351185575127602,0.001045140903443098,0.0031555406749248505,-0.2403322458267212,0.5825072526931763,-0.09853984415531158,0.0267206821590662,0.003024837700650096,2.9817108497809386e-06,0.00017857539933174849,4.117301940917969,90.0,0.0,7000.0,7000.0,7000.0,7000.0,0.302,32.766,0.23,32.766,2.859,2019.1441650390625,809.9066772460938,30.351327896118164,,False,
1783700464.3862667,2026-07-10T09:21:04,56826,20260710_092058,,,,,,arming,,,,,,,,,False,0.011996358633041382,-0.0033019462134689093,1.0008032321929932,-0.2857864499092102,0.5559288859367371,-0.558905303478241,0.0,0.0,94.0,27.0,0.027,0.001788420951925218,-0.0001455659221392125,0.02675638720393181,0.0015351185575127602,0.001045140903443098,0.0031555406749248505,-0.2403322458267212,0.5825072526931763,-0.09853984415531158,0.0267206821590662,0.003024837700650096,2.9817108497809386e-06,0.00017857539933174849,4.117301940917969,90.0,0.0,7000.0,7000.0,7000.0,7000.0,0.302,32.766,0.23,32.766,2.859,2019.1441650390625,809.9066772460938,30.351327896118164,,False,
1783700464.39645,2026-07-10T09:21:04,56836,20260710_092058,,,,,,arming,,,,,,,,,False,0.009370377287268639,-0.005704647861421108,0.9977679252624512,0.4675767719745636,0.22999025881290436,-0.10317777842283249,1.0,-3.0,90.0,25.0,0.025,0.0015610485570505261,-0.0001359601301373914,0.02681809477508068,0.0007427904638461769,0.001602304633706808,0.0031063787173479795,-0.2400154173374176,0.5754896998405457,-0.10597249120473862,0.0267206821590662,0.003024837700650096,2.9817108497809386e-06,0.00017857539933174849,4.117301940917969,90.0,0.0,7000.0,7000.0,7000.0,7000.0,0.302,32.766,0.23,32.766,2.859,2019.1441650390625,809.9066772460938,30.351327896118164,,False,
1783700464.4066124,2026-07-10T09:21:04,56846,20260710_092058,,,,,,arming,,,,,,,,,False,0.010005650110542774,0.0013901585480198264,1.0007556676864624,-0.13190390169620514,-0.3386322259902954,0.03846445679664612,0.0,2.0,82.0,25.0,0.025,0.0015610485570505261,-0.0001359601301373914,0.02681809477508068,0.0007427904638461769,0.001602304633706808,0.0031063787173479795,-0.2400154173374176,0.5754896998405457,-0.10597249120473862,0.0267206821590662,0.003024837700650096,2.9817108497809386e-06,0.00017857539933174849,4.117301940917969,90.0,0.0,7000.0,7000.0,7000.0,7000.0,0.302,32.766,0.23,32.766,2.859,2019.1441650390625,809.9066772460938,30.351327896118164,,False,
1783700464.4167733,2026-07-10T09:21:04,56856,20260710_092058,,,,,,arming,,,,,,,,,False,0.009977588430047035,-0.009679146111011505,1.0001144409179688,0.23599213361740112,-0.2505491077899933,0.15345324575901031,-2.0,1.0,99.0,25.0,0.025,-1.0683478649298195e-05,2.373701022406749e-07,2.4301698431372643e-09,-0.0019271352794021368,8.591464575147256e-05,9.882689937512623e-07,-0.0005505321896634996,0.0022075383458286524,-2.354882235522382e-05,2.4301698431372643e-09,1.0633468718879158e-06,1.0,0.00011000000085914508,4.122580528259277,90.0,0.0,7000.0,7000.0,7000.0,7000.0,0.302,32.766,0.23,32.766,2.859,2019.2371826171875,809.8984375,30.354713439941406,,False,
1783700464.4269338,2026-07-10T09:21:04,56866,20260710_092058,,,,,,arming,,,,,,,,,False,0.011544809676706791,0.0018319826340302825,1.000868558883667,0.12449856102466583,0.02480149082839489,-0.3405202329158783,4.0,-2.0,91.0,25.0,0.025,-1.0683478649298195e-05,2.373701022406749e-07,2.4301698431372643e-09,-0.0019271352794021368,8.591464575147256e-05,9.882689937512623e-07,-0.0005505321896634996,0.0022075383458286524,-2.354882235522382e-05,2.4301698431372643e-09,1.0633468718879158e-06,1.0,0.00011000000085914508,4.122580528259277,90.0,0.0,7000.0,7000.0,7000.0,7000.0,0.302,32.766,0.23,32.766,2.859,2019.2371826171875,809.8984375,30.354713439941406,,False,
1783700464.4370956,2026-07-10T09:21:04,56876,20260710_092058,,,,,,arming,,,,,,,,,False,0.012681830674409866,-0.009198581799864769,0.9995743632316589,0.07310991734266281,0.02862802892923355,0.6215901374816895,-1.0,1.0,96.0,25.0,0.025,-2.608362410683185e-05,-5.002061516279355e-05,0.6180673241615295,0.00030636246083304286,-0.0026463870890438557,0.00015606338274665177,0.03141988441348076,-0.0059590889140963554,0.0010414535645395517,2.4301698431372643e-09,1.0633468718879158e-06,1.0,0.00011000000085914508,4.122580528259277,90.0,0.0,7000.0,7000.0,7000.0,7000.0,0.302,32.766,0.23,32.766,2.859,2019.2371826171875,809.8984375,30.354713439941406,,False,
1783700464.4473379,2026-07-10T09:21:04,56889,20260710_092058,,,,,,arming,,,,,,,,,False,0.009947354905307293,-0.0015593399293720722,1.0006120204925537,0.11784468591213226,-0.3805036246776581,0.39263731241226196,0.0,-2.0,81.0,25.0,0.025,1.3481985661201179e-05,-0.00010525622928980738,0.6176878213882446,0.0028909724205732346,-0.003660681424662471,0.000376582785975188,0.03141988441348076,-0.0059590889140963554,0.0010414535645395517,2.4301698431372643e-09,1.0633468718879158e-06,1.0,0.00011000000085914508,4.122580528259277,90.0,0.0,7000.0,7000.0,7000.0,7000.0,0.302,32.766,0.23,32.766,2.859,2019.2371826171875,809.8984375,30.354713439941406,,False,
1783700464.4575436,2026-07-10T09:21:04,56896,20260710_092058,,,,,,arming,,,,,,,,,False,0.00736562255769968,-0.009179537184536457,1.0008761882781982,-0.031128806993365288,-0.11955064535140991,0.41646137833595276,0.0,-1.0,81.0,27.0,0.027,1.3481985661201179e-05,-0.00010525622928980738,0.6176878213882446,0.0028909724205732346,-0.003660681424662471,0.000376582785975188,0.031938742846250534,-0.011487098410725594,0.004581861663609743,2.4301698431372643e-09,1.0633468718879158e-06,1.0,0.00011000000085914508,4.122580528259277,90.0,0.0,7000.0,7000.0,7000.0,7000.0,0.302,32.766,0.23,32.766,2.859,2019.2371826171875,809.8984375,30.354713439941406,,False,
1783700464.4677036,2026-07-10T09:21:04,56909,20260710_092058,,,,,,arming,,,,,,,,,False,0.00939013808965683,-0.0021756445057690144,1.0029486417770386,-0.14070476591587067,-0.35017919540405273,-0.5560014247894287,1.0,2.0,98.0,27.0,0.027,4.8623849579598755e-05,-0.00026522448752075434,0.02702026255428791,0.003653789171949029,-0.0061414530500769615,0.0006147893727757037,0.031938742846250534,-0.011487098410725594,0.004581861663609743,0.02700774371623993,0.0004201485135126859,6.274382940318901e-06,0.00015999970491975546,4.127859115600586,90.0,0.0,7000.0,7000.0,7000.0,7000.0,32.766,32.766,0.228,32.766,2.841,2019.2371826171875,809.8984375,30.354713439941406,,False,
1783700464.4778762,2026-07-10T09:21:04,56916,20260710_092058,,,,,,arming,,,,,,,,,False,0.009203886613249779,-0.007358641363680363,1.0036698579788208,-0.4270170032978058,0.06906816363334656,-0.03725051507353783,-3.0,0.0,103.0,27.0,0.027,4.8623849579598755e-05,-0.00026522448752075434,0.02702026255428791,0.003653789171949029,-0.0061414530500769615,0.0006147893727757037,0.05063991993665695,0.04816499352455139,0.0029778843745589256,0.02700774371623993,0.0004201485135126859,6.274382940318901e-06,0.00015999970491975546,4.127859115600586,90.0,0.0,7000.0,7000.0,7000.0,7000.0,32.766,32.766,0.228,32.766,2.841,2019.2371826171875,809.8984375,30.354713439941406,,False,
1783700464.4880865,2026-07-10T09:21:04,56926,20260710_092058,,,,,,arming,,,,,,,,,False,0.009808064438402653,-0.0013328110799193382,1.005635142326355,0.12876836955547333,0.29332688450813293,-0.6485106348991394,0.0,0.0,95.0,27.0,0.027,4.8623849579598755e-05,-0.00026522448752075434,0.02702026255428791,0.003653789171949029,-0.0061414530500769615,0.0006147893727757037,0.05063991993665695,0.04816499352455139,0.0029778843745589256,0.02700774371623993,0.0004201485135126859,6.274382940318901e-06,0.00015999970491975546,4.127859115600586,90.0,0.0,7000.0,7000.0,7000.0,7000.0,32.766,32.766,0.228,32.766,2.841,2019.2371826171875,809.8984375,30.354713439941406,,False,
1783700464.4984097,2026-07-10T09:21:04,56936,20260710_092058,,,,,,arming,,,,,,,,,False,0.005875031463801861,-4.925328539684415e-05,0.9999725222587585,-0.3311021327972412,-0.06996030360460281,0.44008222222328186,1.0,1.0,90.0,27.0,0.027,0.00012115031131543219,-6.380178092513233e-05,0.027055639773607254,0.005213568918406963,-0.002088015666231513,0.0015004067681729794,-0.07047891616821289,0.05592300742864609,0.0031711230985820293,0.02700774371623993,0.0004201485135126859,6.274382940318901e-06,0.00015999970491975546,4.127859115600586,90.0,0.0,7000.0,7000.0,7000.0,7000.0,32.766,32.766,0.228,32.766,2.841,2019.2371826171875,809.8984375,30.354713439941406,,False,
1783700464.5085921,2026-07-10T09:21:04,56950,20260710_092058,,,,,,arming,,,,,,,,,False,0.013518106192350388,-0.008249679580330849,0.9969830513000488,0.6004480719566345,0.19484645128250122,-0.42909693717956543,-1.0,-2.0,88.0,27.0,0.027,0.000298808969091624,-7.849653775338084e-05,0.027059126645326614,0.007733043748885393,-0.0020825208630412817,0.0014202682068571448,-0.08655533939599991,0.029558129608631134,0.004515279550105333,0.02700774371623993,0.0004201485135126859,6.274382940318901e-06,0.00015999970491975546,4.127859115600586,90.0,0.0,7000.0,7000.0,7000.0,7000.0,32.766,32.766,0.228,32.766,2.841,2019.2371826171875,809.8984375,30.354713439941406,,False,
1783700464.5187752,2026-07-10T09:21:04,56956,20260710_092058,,,,,,arming,,,,,,,,,False,0.009709661826491356,0.0023421901278197765,1.0009167194366455,-0.553962767124176,-0.4257715940475464,0.1801294982433319,-4.0,3.0,101.0,27.0,0.027,0.000298808969091624,-7.849653775338084e-05,0.027059126645326614,0.007733043748885393,-0.0020825208630412817,0.0014202682068571448,-0.08655533939599991,0.029558129608631134,0.004515279550105333,0.027059126645326614,0.0014131329953670502,3.4028669233521214e-06,0.0002064231812255457,4.127859115600586,90.0,0.0,7000.0,7000.0,7000.0,7000.0,32.766,32.766,0.228,32.766,2.841,2019.209716796875,809.9010009765625,30.359764099121094,,False,
1783700464.5289397,2026-07-10T09:21:04,56970,20260710_092058,,,,,,arming,,,,,,,,,False,0.01789361611008644,-0.01159069687128067,1.002997875213623,0.9579514861106873,0.6699122190475464,-0.28364354372024536,4.0,-4.0,90.0,27.0,0.027,0.0005162697634659708,-0.00011078671377617866,0.027110785245895386,0.01084841601550579,-0.002837525913491845,0.0016825604252517223,-0.06804028898477554,0.0010214223293587565,0.006853658240288496,0.027059126645326614,0.0014131329953670502,3.4028669233521214e-06,0.0002064231812255457,4.127859115600586,90.0,0.0,7000.0,7000.0,7000.0,7000.0,32.766,32.766,0.228,32.766,2.841,2019.209716796875,809.9010009765625,30.359764099121094,,False,
1783700464.5391014,2026-07-10T09:21:04,56976,20260710_092058,,,,,,arming,,,,,,,,,False,0.008252060040831566,0.006690269336104393,0.9999731779098511,-0.7718254923820496,-0.20350974798202515,0.49315476417541504,-4.0,8.0,98.0,27.0,0.027,0.0005162697634659708,-0.00011078671377617866,0.027110785245895386,0.01084841601550579,-0.002837525913491845,0.0016825604252517223,-0.06804028898477554,0.0010214223293587565,0.006853658240288496,0.027059126645326614,0.0014131329953670502,3.4028669233521214e-06,0.0002064231812255457,4.127859115600586,90.0,0.0,7000.0,7000.0,7000.0,7000.0,32.766,32.766,0.228,32.766,2.841,2019.209716796875,809.9010009765625,30.359764099121094,,False,
1783700464.5493655,2026-07-10T09:21:04,56990,20260710_092058,,,,,,arming,,,,,,,,,False,0.012173553928732872,-0.017815683037042618,1.004706859588623,0.6615545749664307,0.37784790992736816,-0.31434059143066406,5.0,-7.0,79.0,27.0,0.027,0.00045641663018614054,-0.00030268324189819396,0.02722703292965889,0.009995300322771072,-0.005450396798551083,0.002425433835014701,-0.00909753143787384,0.06137503683567047,0.005959550384432077,0.027059126645326614,0.0014131329953670502,3.4028669233521214e-06,0.0002064231812255457,4.127859115600586,90.0,0.0,7000.0,7000.0,7000.0,7000.0,32.766,32.766,0.228,32.766,2.841,2019.209716796875,809.9010009765625,30.359764099121094,,False,
1783700464.559526,2026-07-10T09:21:04,57001,20260710_092058,,,,,,arming,,,,,,,,,False,0.0109242619946599,0.008615362457931042,1.003082036972046,-0.7231360673904419,-0.5253153443336487,0.2177591323852539,-1.0,2.0,79.0,28.0,0.028,0.00045641663018614054,-0.00030268324189819396,0.02722703292965889,0.009995300322771072,-0.005450396798551083,0.002425433835014701,-0.00909753143787384,0.06137503683567047,0.005959550384432077,0.027588840574026108,0.003920429851859808,2.774185077214497e-06,0.00023152941139414907,4.127859115600586,90.0,0.0,7000.0,7000.0,7000.0,7000.0,32.766,32.766,0.228,32.766,2.841,2019.209716796875,809.9010009765625,30.359764099121094,,False,
1783700464.5696871,2026-07-10T09:21:04,57010,20260710_092058,,,,,,arming,,,,,,,,,False,0.01728273183107376,-0.016584793105721474,1.0049703121185303,0.4985702931880951,-0.4605715274810791,-0.1678464114665985,1.0,-2.0,101.0,28.0,0.028,0.0004949171561747789,-0.0003215356555301696,0.027627568691968918,0.01034146174788475,-0.005307582672685385,0.004289892502129078,-0.033212173730134964,0.10998848080635071,0.005132740829139948,0.027588840574026108,0.003920429851859808,2.774185077214497e-06,0.00023152941139414907,4.127859115600586,90.0,0.0,7000.0,7000.0,7000.0,7000.0,32.766,32.766,0.228,32.766,2.843,2019.209716796875,809.9010009765625,30.359764099121094,,False,
1783700464.5798569,2026-07-10T09:21:04,57016,20260710_092058,,,,,,arming,,,,,,,,,False,0.009103844873607159,0.009752162732183933,1.0009666681289673,-0.49495628476142883,0.14548519253730774,0.6199936866760254,0.0,2.0,101.0,28.0,0.028,0.0004949171561747789,-0.0003215356555301696,0.027627568691968918,0.01034146174788475,-0.005307582672685385,0.004289892502129078,-0.033212173730134964,0.10998848080635071,0.005132740829139948,0.027588840574026108,0.003920429851859808,2.774185077214497e-06,0.00023152941139414907,4.127859115600586,90.0,0.0,7000.0,7000.0,7000.0,7000.0,32.766,32.766,0.228,32.766,2.843,2019.209716796875,809.9010009765625,30.359764099121094,,False,
1783700464.5900156,2026-07-10T09:21:04,57030,20260710_092058,,,,,,arming,,,,,,,,,False,0.011951555497944355,-0.019417867064476013,1.0026410818099976,0.7739656567573547,-0.14343062043190002,-0.6216740012168884,0.0,-3.0,92.0,28.0,0.028,0.0007230355986393988,-0.0003366666496731341,0.02772253192961216,0.012429825961589813,-0.005064012948423624,0.0047966367565095425,-0.05719265341758728,0.10333491116762161,0.003261575708165765,0.027588840574026108,0.003920429851859808,2.774185077214497e-06,0.00023152941139414907,4.127859115600586,90.0,0.0,7000.0,7000.0,7000.0,7000.0,32.766,32.766,0.228,32.766,2.843,2019.209716796875,809.9010009765625,30.359764099121094,,False,
1783700464.6002665,2026-07-10T09:21:04,57036,20260710_092058,,,,,,arming,,,,,,,,,False,0.008818206377327442,0.01062290370464325,0.9995149374008179,-0.4140804708003998,-0.07416815310716629,0.4603255093097687,0.0,2.0,79.0,27.0,0.027,0.0007230355986393988,-0.0003366666496731341,0.02772253192961216,0.012429825961589813,-0.005064012948423624,0.0047966367565095425,-0.05719265341758728,0.10333491116762161,0.003261575708165765,0.027588840574026108,0.003920429851859808,2.774185077214497e-06,0.00023152941139414907,4.127859115600586,90.0,0.0,7000.0,7000.0,7000.0,7000.0,32.766,32.766,0.228,32.766,2.843,2019.209716796875,809.9010009765625,30.359764099121094,,False,
1783700464.610455,2026-07-10T09:21:04,57052,20260710_092058,,,,,,arming,,,,,,,,,False,0.010055448859930038,-0.016149207949638367,0.9999421834945679,0.2909635901451111,0.0784599557518959,-0.5622522234916687,0.0,-1.0,84.0,27.0,0.027,0.0005409072036854923,-0.000338441866915673,0.027529707178473473,0.009690648876130581,-0.004519019275903702,0.0034168658312410116,-0.08002100884914398,0.20386721193790436,0.0036952579393982887,0.027529707178473473,0.0033760552760213614,2.9015664040343836e-06,0.00024445363669656217,4.127859115600586,90.0,0.0,7000.0,7000.0,7000.0,7000.0,32.766,32.766,0.228,32.766,2.843,2019.209716796875,809.9010009765625,30.359764099121094,,False,
1783700464.620613,2026-07-10T09:21:04,57056,20260710_092058,,,,,,arming,,,,,,,,,False,0.011926556937396526,0.010966219007968903,1.0008316040039062,-0.2881665825843811,0.19714760780334473,0.4608064889907837,0.0,1.0,93.0,27.0,0.027,0.0005409072036854923,-0.000338441866915673,0.027529707178473473,0.009690648876130581,-0.004519019275903702,0.0034168658312410116,-0.08002100884914398,0.20386721193790436,0.0036952579393982887,0.027529707178473473,0.0033760552760213614,2.9015664040343836e-06,0.00024445363669656217,4.127859115600586,90.0,0.0,7000.0,7000.0,7000.0,7000.0,32.766,32.766,0.228,32.766,2.843,2019.166015625,809.9048461914062,30.36598777770996,,False,
1783700464.6307824,2026-07-10T09:21:04,57070,20260710_092058,,,,,,arming,,,,,,,,,False,0.00948522612452507,-0.019115367904305458,1.0060560703277588,0.27936962246894836,-0.7037655711174011,-0.13009369373321533,-1.0,1.0,87.0,27.0,0.027,0.00011129507038276643,-0.00012448977213352919,0.027608171105384827,0.005210091359913349,-0.0020257134456187487,0.0040369401685893536,-0.14592400193214417,0.3445207476615906,0.004170852247625589,0.027529707178473473,0.0033760552760213614,2.9015664040343836e-06,0.00024445363669656217,4.127859115600586,90.0,0.0,7000.0,7000.0,7000.0,7000.0,32.766,32.766,0.228,32.766,2.843,2019.166015625,809.9048461914062,30.36598777770996,,False,
1783700464.6409442,2026-07-10T09:21:04,57076,20260710_092058,,,,,,arming,,,,,,,,,False,0.012862259522080421,0.009399541653692722,0.9989119172096252,-0.3721168041229248,0.15492819249629974,0.8033187389373779,0.0,1.0,100.0,27.0,0.027,0.00011129507038276643,-0.00012448977213352919,0.027608171105384827,0.005210091359913349,-0.0020257134456187487,0.0040369401685893536,-0.14592400193214417,0.3445207476615906,0.004170852247625589,0.027529707178473473,0.0033760552760213614,2.9015664040343836e-06,0.00024445363669656217,4.127859115600586,90.0,0.0,7000.0,7000.0,7000.0,7000.0,32.766,32.766,0.228,32.766,2.843,2019.166015625,809.9048461914062,30.36598777770996,,False,
1783700464.65112,2026-07-10T09:21:04,57090,20260710_092058,,,,,,arming,,,,,,,,,False,0.008566637523472309,-0.01692892424762249,0.9996992945671082,0.44550612568855286,-0.2614801824092865,-0.6221637725830078,0.0,-3.0,78.0,27.0,0.027,0.0005557089461944997,-0.00012264095130376518,0.02769162692129612,0.009245394729077816,-0.0019397230353206396,0.004079215228557587,-0.1551719456911087,0.27835482358932495,0.002956090494990349,0.027529707178473473,0.0033760552760213614,2.9015664040343836e-06,0.00024445363669656217,4.127859115600586,90.0,0.0,7000.0,7000.0,7000.0,7000.0,32.766,32.766,0.228,32.766,2.843,2019.166015625,809.9048461914062,30.36598777770996,,False,
1783700464.6613808,2026-07-10T09:21:04,57102,20260710_092058,,,,,,arming,,,,,,,,,False,0.017312534153461456,0.011077549308538437,0.997566819190979,-0.23963822424411774,0.3987845182418823,0.8614896535873413,1.0,0.0,76.0,23.0,0.023,0.0005557089461944997,-0.00012264095130376518,0.02769162692129612,0.009245394729077816,-0.0019397230353206396,0.004079215228557587,-0.1551719456911087,0.27835482358932495,0.002956090494990349,0.025613436475396156,-0.008061878383159637,3.0037560918572126e-06,0.0002262427005916834,4.122580528259277,90.0,0.0,7000.0,7000.0,7000.0,7000.0,32.766,32.766,0.228,32.766,2.843,2019.166015625,809.9048461914062,30.36598777770996,,False,
1783700464.6715376,2026-07-10T09:21:04,57110,20260710_092058,,,,,,arming,,,,,,,,,False,0.00765110133215785,-0.01815040037035942,1.004894495010376,0.250000536441803,-0.19553165137767792,-0.638965368270874,-1.0,1.0,90.0,23.0,0.023,0.00032075983472168446,-0.00011298542085569352,0.025538161396980286,0.0069753872230648994,-0.001555489026941359,-0.007686014752835035,-0.16283267736434937,0.3516364097595215,0.0001694347884040326,0.025613436475396156,-0.008061878383159637,3.0037560918572126e-06,0.0002262427005916834,4.122580528259277,90.0,0.0,7000.0,7000.0,7000.0,7000.0,32.766,32.766,0.225,32.766,2.853,2019.166015625,809.9048461914062,30.36598777770996,,False,
1783700464.6816952,2026-07-10T09:21:04,57116,20260710_092058,,,,,,arming,,,,,,,,,False,0.014822984114289284,0.005902417004108429,0.9977381825447083,-0.46589168906211853,0.5029273629188538,0.5337608456611633,1.0,1.0,98.0,23.0,0.023,0.00032075983472168446,-0.00011298542085569352,0.025538161396980286,0.0069753872230648994,-0.001555489026941359,-0.007686014752835035,-0.16283267736434937,0.3516364097595215,0.0001694347884040326,0.025613436475396156,-0.008061878383159637,3.0037560918572126e-06,0.0002262427005916834,4.122580528259277,90.0,0.0,7000.0,7000.0,7000.0,7000.0,32.766,32.766,0.225,32.766,2.853,2019.166015625,809.9048461914062,30.36598777770996,,False,
1783700464.6918638,2026-07-10T09:21:04,57130,20260710_092058,,,,,,arming,,,,,,,,,False,0.004010563716292381,-0.017510272562503815,1.0007452964782715,0.39767953753471375,-0.3664741814136505,-0.46158936619758606,0.0,-3.0,90.0,23.0,0.023,0.0007797311991453171,-0.0003410289064049721,0.025385377928614616,0.0103678610175848,-0.003760858438909054,-0.007676822133362293,-0.13246938586235046,0.29237446188926697,-0.00037420791340991855,0.025613436475396156,-0.008061878383159637,3.0037560918572126e-06,0.0002262427005916834,4.122580528259277,90.0,0.0,7000.0,7000.0,7000.0,7000.0,32.766,32.766,0.225,32.766,2.853,2019.166015625,809.9048461914062,30.36598777770996,,False,
1783700464.702069,2026-07-10T09:21:04,57136,20260710_092058,,,,,,arming,,,,,,,,,False,0.02013695240020752,0.007694388274103403,0.9997432827949524,-0.6793233752250671,0.29414254426956177,0.6714354157447815,0.0,0.0,75.0,30.0,0.03,0.0007797311991453171,-0.0003410289064049721,0.025385377928614616,0.0103678610175848,-0.003760858438909054,-0.007676822133362293,-0.13246938586235046,0.29237446188926697,-0.00037420791340991855,0.025613436475396156,-0.008061878383159637,3.0037560918572126e-06,0.0002262427005916834,4.122580528259277,90.0,0.0,7000.0,7000.0,7000.0,7000.0,32.766,32.766,0.225,32.766,2.853,2019.166015625,809.9048461914062,30.36598777770996,,False,
1783700464.7123249,2026-07-10T09:21:04,57154,20260710_092058,,,,,,arming,,,,,,,,,False,0.005008057691156864,-0.015422043390572071,1.004325032234192,0.7430978417396545,-0.8211707472801208,-0.4432779848575592,0.0,4.0,93.0,30.0,0.03,-0.00017838574422057718,-0.0003888357896357775,0.027338476851582527,0.002209954895079136,-0.003866756334900856,0.00352851371280849,-0.1348637491464615,0.4737594425678253,-0.0009865164756774902,0.027338476851582527,0.0035010152496397495,3.2204995932261227e-06,0.00021670038404408842,4.127859115600586,90.0,0.0,7000.0,7000.0,7000.0,7000.0,32.766,32.766,0.225,32.766,2.853,2019.1715087890625,809.9044189453125,30.365127563476562,,False,
1783700464.7225392,2026-07-10T09:21:04,57164,20260710_092058,,,,,,arming,,,,,,,,,False,0.0010193518828600645,-0.01314630825072527,1.0032763481140137,0.971203625202179,-0.4440056085586548,-0.2638861835002899,2.0,0.0,99.0,30.0,0.03,-0.00017838574422057718,-0.0003888357896357775,0.027338476851582527,0.002209954895079136,-0.003866756334900856,0.00352851371280849,-0.1348637491464615,0.4737594425678253,-0.0009865164756774902,0.027338476851582527,0.0035010152496397495,3.2204995932261227e-06,0.00021670038404408842,4.127859115600586,90.0,0.0,7000.0,7000.0,7000.0,7000.0,32.766,32.766,0.225,32.766,2.853,2019.1715087890625,809.9044189453125,30.365127563476562,,False,
1783700464.7327366,2026-07-10T09:21:04,57174,20260710_092058,,,,,,arming,,,,,,,,,False,0.024312755092978477,0.0028101960197091103,0.9977397322654724,-0.8713250756263733,0.3289174437522888,0.2413957566022873,-2.0,-1.0,87.0,30.0,0.03,6.768543971702456e-05,-0.0003776115772780031,0.02741527371108532,0.004486669786274433,-0.0036507074255496264,0.003933371044695377,-0.1454017460346222,0.44592589139938354,-0.0006704430561512709,0.027338476851582527,0.0035010152496397495,3.2204995932261227e-06,0.00021670038404408842,4.127859115600586,90.0,0.0,7000.0,7000.0,7000.0,7000.0,32.766,32.766,0.225,32.766,2.853,2019.1715087890625,809.9044189453125,30.365127563476562,,False,
1783700464.7429247,2026-07-10T09:21:04,57184,20260710_092058,,,,,,arming,,,,,,,,,False,0.0002148056955775246,-0.008196646347641945,1.001845359802246,0.6299337148666382,-0.42636579275131226,-0.16668729484081268,-1.0,0.0,100.0,30.0,0.03,6.768543971702456e-05,-0.0003776115772780031,0.02741527371108532,0.004486669786274433,-0.0036507074255496264,0.003933371044695377,-0.1454017460346222,0.44592589139938354,-0.0006704430561512709,0.027338476851582527,0.0035010152496397495,3.2204995932261227e-06,0.00021670038404408842,4.127859115600586,90.0,0.0,7000.0,7000.0,7000.0,7000.0,32.766,32.766,0.225,32.766,2.853,2019.1715087890625,809.9044189453125,30.365127563476562,,False,
1783700464.7531016,2026-07-10T09:21:04,57194,20260710_092058,,,,,,arming,,,,,,,,,False,0.021102486178278923,0.0017564058071002364,0.998572051525116,-0.5867721438407898,0.4427562952041626,0.02862161211669445,0.0,-2.0,76.0,30.0,0.03,0.0005583014572039247,-0.00010275668319081888,0.027493713423609734,0.008306042291224003,-0.001414465601556003,0.004029667004942894,-0.18973922729492188,0.3983706533908844,-0.000241544796153903,0.027338476851582527,0.0035010152496397495,3.2204995932261227e-06,0.00021670038404408842,4.127859115600586,90.0,0.0,7000.0,7000.0,7000.0,7000.0,32.766,32.766,0.225,32.766,2.853,2019.1715087890625,809.9044189453125,30.365127563476562,,False,
1783700464.7633548,2026-07-10T09:21:04,57204,20260710_092058,,,,,,arming,,,,,,,,,False,0.0023123829159885645,-0.005743150599300861,1.0003178119659424,0.4722048342227936,-1.0246275663375854,-0.09013111889362335,1.0,-1.0,81.0,27.0,0.027,0.0005583014572039247,-0.00010275668319081888,0.027493713423609734,0.008306042291224003,-0.001414465601556003,0.004029667004942894,-0.18973922729492188,0.3983706533908844,-0.000241544796153903,0.02729862555861473,0.002622050466015935,3.1440752081834944e-06,0.00019566708942875266,4.127859115600586,90.0,0.0,7000.0,7000.0,7000.0,7000.0,32.766,32.766,0.231,32.766,2.851,2019.1715087890625,809.9044189453125,30.365127563476562,,False,
1783700464.7735348,2026-07-10T09:21:04,57214,20260710_092058,,,,,,arming,,,,,,,,,False,0.021771593019366264,-0.004689475987106562,0.9950616359710693,-0.5884610414505005,0.6159029603004456,-0.03898746147751808,0.0,0.0,92.0,27.0,0.027,0.0009171957499347627,-0.00035818247124552727,0.027326012030243874,0.010370495729148388,-0.002863097470253706,0.0027773554902523756,-0.161548912525177,0.3841709792613983,-0.0019177331123501062,0.02729862555861473,0.002622050466015935,3.1440752081834944e-06,0.00019566708942875266,4.127859115600586,90.0,0.0,7000.0,7000.0,7000.0,7000.0,32.766,32.766,0.231,32.766,2.851,2019.1715087890625,809.9044189453125,30.365127563476562,,False,
1783700464.7837014,2026-07-10T09:21:04,57224,20260710_092058,,,,,,arming,,,,,,,,,False,0.0023048892617225647,-5.8205299865221605e-05,0.9990628957748413,0.5182532668113708,-0.7786322236061096,0.1921384185552597,-1.0,3.0,100.0,27.0,0.027,0.0009171957499347627,-0.00035818247124552727,0.027326012030243874,0.010370495729148388,-0.002863097470253706,0.0027773554902523756,-0.161548912525177,0.3841709792613983,-0.0019177331123501062,0.02729862555861473,0.002622050466015935,3.1440752081834944e-06,0.00019566708942875266,4.127859115600586,90.0,0.0,7000.0,7000.0,7000.0,7000.0,32.766,32.766,0.231,32.766,2.851,2019.1715087890625,809.9044189453125,30.365127563476562,,False,
1783700464.793864,2026-07-10T09:21:04,57234,20260710_092058,,,,,,arming,,,,,,,,,False,0.016096901148557663,-0.005971523933112621,0.9993404150009155,-0.49469804763793945,0.4065191447734833,0.296906977891922,0.0,0.0,92.0,27.0,0.027,0.00011594922398217022,-5.113467341288924e-05,0.027385808527469635,0.00427407817915082,-0.0006070841336622834,0.0023531271144747734,-0.20256920158863068,0.49902117252349854,-0.0034714348148554564,0.02729862555861473,0.002622050466015935,3.1440752081834944e-06,0.00019566708942875266,4.127859115600586,90.0,0.0,7000.0,7000.0,7000.0,7000.0,32.766,32.766,0.231,32.766,2.851,2019.1715087890625,809.9044189453125,30.365127563476562,,False,
1783700464.8040266,2026-07-10T09:21:04,57244,20260710_092058,,,,,,arming,,,,,,,,,False,0.006000243127346039,0.0030596950091421604,1.0025895833969116,0.4713728725910187,-1.1620999574661255,0.4094468355178833,0.0,0.0,75.0,23.0,0.023,0.00011594922398217022,-5.113467341288924e-05,0.027385808527469635,0.00427407817915082,-0.0006070841336622834,0.0023531271144747734,-0.20256920158863068,0.49902117252349854,-0.0034714348148554564,0.02729862555861473,0.002622050466015935,3.1440752081834944e-06,0.00019566708942875266,4.127859115600586,90.0,0.0,7000.0,7000.0,7000.0,7000.0,32.766,32.766,0.231,32.766,2.851,2019.1715087890625,809.9044189453125,30.365127563476562,,False,
1783700464.8142023,2026-07-10T09:21:04,57254,20260710_092058,,,,,,arming,,,,,,,,,False,0.006000243127346039,0.0030596950091421604,1.0025895833969116,0.4713728725910187,-1.1620999574661255,0.4094468355178833,1.0,-3.0,92.0,23.0,0.023,0.0010633725905790925,-0.00039755646139383316,0.0254279263317585,0.010263948701322079,-0.0027079530991613865,-0.0074357097037136555,-0.16356343030929565,0.4163307547569275,-0.001021509524434805,0.0254279263317585,-0.0075178081169724464,3.2095651931740576e-06,0.00019228215387556702,4.127859115600586,90.0,0.0,7000.0,7000.0,7000.0,7000.0,32.766,32.766,0.231,32.766,2.851,2019.1495361328125,809.9061279296875,30.35456657409668,,False,
1783700464.8244278,2026-07-10T09:21:04,57266,20260710_092058,,,,,,arming,,,,,,,,,False,0.01636110618710518,0.007325153797864914,0.998528778553009,-0.2658815383911133,-0.30965352058410645,0.08241091668605804,1.0,2.0,86.0,23.0,0.023,0.0010633725905790925,-0.00039755646139383316,0.0254279263317585,0.010263948701322079,-0.0027079530991613865,-0.0074357097037136555,-0.16356343030929565,0.4163307547569275,-0.001021509524434805,0.0254279263317585,-0.0075178081169724464,3.2095651931740576e-06,0.00019228215387556702,4.127859115600586,90.0,0.0,7000.0,7000.0,7000.0,7000.0,32.766,32.766,0.231,32.766,2.851,2019.1495361328125,809.9061279296875,30.35456657409668,,False,
1783700464.834598,2026-07-10T09:21:04,57276,20260710_092058,,,,,,arming,,,,,,,,,False,0.009861068800091743,-0.01452860701829195,1.0000038146972656,-0.032265253365039825,0.7645236849784851,0.14604094624519348,0.0,0.0,100.0,23.0,0.023,-0.00028515374287962914,-0.0003673369938042015,0.025286978110671043,0.000919496756978333,-0.0024950169026851654,-0.007448134478181601,-0.17154839634895325,0.5676970481872559,-0.002105278428643942,0.0254279263317585,-0.0075178081169724464,3.2095651931740576e-06,0.00019228215387556702,4.127859115600586,90.0,0.0,7000.0,7000.0,7000.0,7000.0,32.766,32.766,0.231,32.766,2.851,2019.1495361328125,809.9061279296875,30.35456657409668,,False,
1783700464.8447583,2026-07-10T09:21:04,57286,20260710_092058,,,,,,arming,,,,,,,,,False,0.02220172807574272,0.009514997713267803,0.9992339015007019,-0.21844786405563354,-0.5287074446678162,0.45624834299087524,0.0,-3.0,78.0,23.0,0.023,-0.00028515374287962914,-0.0003673369938042015,0.025286978110671043,0.000919496756978333,-0.0024950169026851654,-0.007448134478181601,-0.17154839634895325,0.5676970481872559,-0.002105278428643942,0.0254279263317585,-0.0075178081169724464,3.2095651931740576e-06,0.00019228215387556702,4.127859115600586,90.0,0.0,7000.0,7000.0,7000.0,7000.0,32.766,32.766,0.231,32.766,2.851,2019.1495361328125,809.9061279296875,30.35456657409668,,False,
1783700464.8549142,2026-07-10T09:21:04,57296,20260710_092058,,,,,,arming,,,,,,,,,False,-0.0025639517698436975,-0.017973914742469788,1.0017222166061401,0.2364206165075302,0.6013621091842651,-0.19914211332798004,0.0,2.0,82.0,28.0,0.028,0.0006895557162351906,-0.0003819670819211751,0.02513897605240345,0.007836278527975082,-0.002255072584375739,-0.007608296815305948,-0.17673397064208984,0.4763716757297516,0.00030697748297825456,0.0254279263317585,-0.0075178081169724464,3.2095651931740576e-06,0.00019228215387556702,4.127859115600586,90.0,0.0,7000.0,7000.0,7000.0,7000.0,32.766,32.766,0.231,32.766,2.851,2019.1495361328125,809.9061279296875,30.35456657409668,,False,
1783700464.8650727,2026-07-10T09:21:04,57306,20260710_092058,,,,,,arming,,,,,,,,,False,0.024872850626707077,0.011969623155891895,1.0009201765060425,-0.6162942051887512,-0.05374809354543686,0.2529972195625305,3.0,0.0,91.0,28.0,0.028,0.0006895557162351906,-0.0003819670819211751,0.02513897605240345,0.007836278527975082,-0.002255072584375739,-0.007608296815305948,-0.17673397064208984,0.4763716757297516,0.00030697748297825456,0.026394901797175407,-0.0011031803442165256,3.0728076580999186e-06,0.00018152306438423693,4.127859115600586,90.0,0.0,7000.0,7000.0,7000.0,7000.0,32.766,0.377,0.228,32.766,32.766,2019.1495361328125,809.9061279296875,30.35456657409668,,False,
1783700464.8752859,2026-07-10T09:21:04,57316,20260710_092058,,,,,,arming,,,,,,,,,False,-0.00655336445197463,-0.019768835976719856,1.001483678817749,0.6745971441268921,0.7998285293579102,0.2232767641544342,-4.0,1.0,99.0,28.0,0.028,-1.1036481737392023e-05,-0.0013019890757277608,0.026384497061371803,0.0029999420512467623,-0.007698120549321175,-0.0008728108368813992,-0.10145950317382812,0.5462831258773804,4.415228249854408e-05,0.026394901797175407,-0.0011031803442165256,3.0728076580999186e-06,0.00018152306438423693,4.127859115600586,90.0,0.0,7000.0,7000.0,7000.0,7000.0,32.766,0.377,0.228,32.766,32.766,2019.1495361328125,809.9061279296875,30.35456657409668,,False,
1783700464.8854733,2026-07-10T09:21:04,57326,20260710_092058,,,,,,arming,,,,,,,,,False,0.030781742185354233,0.01239145826548338,0.9975535869598389,-0.3231695294380188,-0.03777454048395157,-0.05202433094382286,0.0,0.0,93.0,28.0,0.028,-1.1036481737392023e-05,-0.0013019890757277608,0.026384497061371803,0.0029999420512467623,-0.007698120549321175,-0.0008728108368813992,-0.10145950317382812,0.5462831258773804,4.415228249854408e-05,0.026394901797175407,-0.0011031803442165256,3.0728076580999186e-06,0.00018152306438423693,4.127859115600586,90.0,0.0,7000.0,7000.0,7000.0,7000.0,32.766,0.377,0.228,32.766,32.766,2019.1495361328125,809.9061279296875,30.35456657409668,,False,
1783700464.8956451,2026-07-10T09:21:04,57336,20260710_092058,,,,,,arming,,,,,,,,,False,-0.009887640364468098,-0.02184808999300003,1.004232406616211,0.60055011510849,-0.05549151450395584,0.062326036393642426,1.0,-4.0,76.0,26.0,0.026,-0.0002913041680585593,-2.9592843930004165e-05,0.026377413421869278,0.0014295511646196246,0.00035926405689679086,-0.0009219769272021949,-0.213044211268425,0.5657742619514465,0.0019646717701107264,0.026394901797175407,-0.0011031803442165256,3.0728076580999186e-06,0.00018152306438423693,4.127859115600586,90.0,0.0,7000.0,7000.0,7000.0,7000.0,32.766,0.377,0.228,32.766,32.766,2019.1495361328125,809.9061279296875,30.35456657409668,,False,
1783700464.9058049,2026-07-10T09:21:04,57346,20260710_092058,,,,,,arming,,,,,,,,,False,0.032180044800043106,0.012319977395236492,0.9970524907112122,-0.6268261075019836,0.4209608733654022,-0.27128615975379944,3.0,0.0,92.0,26.0,0.026,-0.0002913041680585593,-2.9592843930004165e-05,0.026377413421869278,0.0014295511646196246,0.00035926405689679086,-0.0009219769272021949,-0.213044211268425,0.5657742619514465,0.0019646717701107264,0.026394901797175407,-0.0011031803442165256,3.0728076580999186e-06,0.00018152306438423693,4.127859115600586,90.0,0.0,7000.0,7000.0,7000.0,7000.0,32.766,0.377,0.228,32.766,32.766,2019.1495361328125,809.9061279296875,30.35456657409668,,False,
1783700464.9159644,2026-07-10T09:21:04,57356,20260710_092058,,,,,,arming,,,,,,,,,False,-0.01063165906816721,-0.01569373346865177,1.00205659866333,0.6838945746421814,-1.1060113906860352,0.4642338454723358,-4.0,2.0,91.0,26.0,0.026,0.0009815399535000324,-0.0013128472492098808,0.026195283979177475,0.009023791179060936,-0.007308678701519966,-0.0016793485265225172,-0.11296765506267548,0.46972090005874634,0.0005575728719122708,0.026195283979177475,-0.001767679932527244,3.1205486266117077e-06,0.0001845399383455515,4.127859115600586,90.0,0.0,7000.0,7000.0,7000.0,7000.0,32.766,0.377,0.228,32.766,32.766,2019.0238037109375,809.9174194335938,30.346202850341797,,False,
1783700464.9261243,2026-07-10T09:21:04,57366,20260710_092058,,,,,,arming,,,,,,,,,False,0.03124358132481575,0.01070382446050644,0.9975371956825256,-0.8214173316955566,0.7316282987594604,0.08428896963596344,0.0,0.0,91.0,26.0,0.026,0.0009815399535000324,-0.0013128472492098808,0.026195283979177475,0.009023791179060936,-0.007308678701519966,-0.0016793485265225172,-0.11296765506267548,0.46972090005874634,0.0005575728719122708,0.026195283979177475,-0.001767679932527244,3.1205486266117077e-06,0.0001845399383455515,4.127859115600586,90.0,0.0,7000.0,7000.0,7000.0,7000.0,32.766,0.377,0.228,32.766,32.766,2019.0238037109375,809.9174194335938,30.346202850341797,,False,
1783700464.9364161,2026-07-10T09:21:04,57376,20260710_092058,,,,,,arming,,,,,,,,,False,-0.009858697652816772,-0.016758305951952934,1.0013171434402466,0.6825568079948425,-0.9977798461914062,0.08796475827693939,1.0,1.0,99.0,26.0,0.026,0.0003282726975157857,-1.5993218767107464e-05,0.026176979765295982,0.0048864916898310184,0.0006102474872022867,-0.0016542512457817793,-0.21791748702526093,0.5306475758552551,0.0017298884922638535,0.026195283979177475,-0.001767679932527244,3.1205486266117077e-06,0.0001845399383455515,4.127859115600586,90.0,0.0,7000.0,7000.0,7000.0,7000.0,32.766,0.377,0.228,32.766,32.766,2019.0238037109375,809.9174194335938,30.346202850341797,,False,
1783700464.9465845,2026-07-10T09:21:04,57386,20260710_092058,,,,,,arming,,,,,,,,,False,0.029498500749468803,0.0037503766361624002,0.9979508519172668,-0.6748943328857422,1.2746070623397827,0.19036467373371124,0.0,0.0,75.0,26.0,0.026,0.0003282726975157857,-1.5993218767107464e-05,0.026176979765295982,0.0048864916898310184,0.0006102474872022867,-0.0016542512457817793,-0.21791748702526093,0.5306475758552551,0.0017298884922638535,0.026195283979177475,-0.001767679932527244,3.1205486266117077e-06,0.0001845399383455515,4.127859115600586,90.0,0.0,7000.0,7000.0,7000.0,7000.0,32.766,0.377,0.228,32.766,32.766,2019.0238037109375,809.9174194335938,30.346202850341797,,False,
1783700464.9567554,2026-07-10T09:21:04,57396,20260710_092058,,,,,,arming,,,,,,,,,False,-0.00613788515329361,-0.012344911694526672,1.002911925315857,0.3919375538825989,-1.0697166919708252,-0.008089692331850529,0.0,-3.0,77.0,26.0,0.026,-3.565763108781539e-05,-0.0003936891444027424,0.02614455856382847,0.002791164442896843,-0.001616135356016457,-0.0017897109501063824,-0.18990422785282135,0.5532212853431702,0.002151496708393097,0.026195283979177475,-0.001767679932527244,3.1205486266117077e-06,0.0001845399383455515,4.127859115600586,90.0,0.0,7000.0,7000.0,7000.0,7000.0,32.766,0.377,0.228,32.766,32.766,2019.0238037109375,809.9174194335938,30.346202850341797,,False,
