pc_time_s,pc_time_iso,cf_time_ms,session_id,motif_id,motif_type,motif_phase,rep_index,motif_param_json,flight_phase,cmd_vx_m_s,cmd_vy_m_s,cmd_yaw_rate_deg_s,cmd_height_m,cmd_vx_raw_m_s,cmd_vy_raw_m_s,cmd_yaw_rate_raw_deg_s,cmd_height_raw_m,safety_override_active,acc_x_g,acc_y_g,acc_z_g,gyro_x_dps,gyro_y_dps,gyro_z_dps,flow_delta_x_px,flow_delta_y_px,flow_squal,zrange_mm,zrange_m,x_m,y_m,z_m,vx_m_s,vy_m_s,vz_m_s,roll_deg,pitch_deg,yaw_deg,kalman_state_z_m,kalman_state_pz,kalman_var_z,kalman_var_pz,battery_v,battery_level_pct,pm_state,motor_m1,motor_m2,motor_m3,motor_m4,range_front_m,range_back_m,range_left_m,range_right_m,range_up_m,baro_asl_m,baro_pressure_hpa,baro_temp_c,safety_flag,should_land,event
1783703603.448083,2026-07-10T10:13:23,,20260710_101318,,,,,,ground_idle,,,,,,,,,False,,,,,,,,,,,,,,,,,,,,,,,,,,,,,,,,,,,,,,,,,False,
1783703603.4582503,2026-07-10T10:13:23,34995,20260710_101318,,,,,,ground_idle,,,,,,,,,False,0.010589908808469772,0.005589017644524574,1.000206470489502,-0.043777935206890106,-0.252768337726593,-0.03599697723984718,,,,,,,,,,,,,,,,,,,,,,,,,,,,,,,,,,,False,
1783703603.4684002,2026-07-10T10:13:23,35005,20260710_101318,,,,,,ground_idle,,,,,,,,,False,0.011302316561341286,0.005175864789634943,0.998760998249054,-0.09810367971658707,0.23959389328956604,0.05960438773036003,0.0,1.0,83.0,23.0,0.023,,,,,,,,,,,,,,,,,,,,,,,,,,,,,,False,
1783703603.4785452,2026-07-10T10:13:23,35015,20260710_101318,,,,,,ground_idle,,,,,,,,,False,0.008685524575412273,0.0045271399430930614,0.999748170375824,-0.04110982269048691,0.18053802847862244,-0.22238513827323914,0.0,0.0,86.0,23.0,0.023,0.0047515579499304295,0.0009030030923895538,0.023465225473046303,-2.6004396204371005e-05,0.00020202394807711244,0.00440007820725441,0.24447289109230042,0.5683948993682861,0.04513953626155853,,,,,,,,,,,,,,,,,,,,,False,
1783703603.4887128,2026-07-10T10:13:23,35025,20260710_101318,,,,,,ground_idle,,,,,,,,,False,0.008723755367100239,0.005334156099706888,0.9990196824073792,0.011262250132858753,0.16645567119121552,-0.10174746066331863,0.0,0.0,90.0,23.0,0.023,0.0047515579499304295,0.0009030030923895538,0.023465225473046303,-2.6004396204371005e-05,0.00020202394807711244,0.00440007820725441,0.24447289109230042,0.5683948993682861,0.04513953626155853,,,,,,,,,,,,,,,,,,,,,False,
1783703603.4988682,2026-07-10T10:13:23,35035,20260710_101318,,,,,,ground_idle,,,,,,,,,False,0.008291470818221569,0.005296721588820219,1.0007072687149048,0.09830998629331589,0.07630176097154617,-0.031239213421940804,0.0,0.0,85.0,23.0,0.023,0.00474938889965415,0.0009076585411094129,0.023551879450678825,-0.00024411090998910367,0.00034800698631443083,0.004261303693056107,0.2442014217376709,0.5638607144355774,0.043714817613363266,,,,,,,,,,,,,,,,,,,,,False,
1783703603.5090191,2026-07-10T10:13:23,35045,20260710_101318,,,,,,ground_idle,,,,,,,,,False,0.009535705670714378,0.0053686113096773624,0.999882698059082,-0.06286686658859253,-0.287624716758728,-0.07794957607984543,0.0,0.0,92.0,24.0,0.024,0.00474938889965415,0.0009076585411094129,0.023551879450678825,-0.00024411090998910367,0.00034800698631443083,0.004261303693056107,0.2442014217376709,0.5638607144355774,0.043714817613363266,0.023781316354870796,0.005237730219960213,2.753448370640399e-06,0.00017276463040616363,3.8217010498046875,20.0,0.0,0.0,0.0,0.0,0.0,0.276,32.766,0.263,32.766,2.846,,,,,False,
1783703603.5192304,2026-07-10T10:13:23,35055,20260710_101318,,,,,,ground_idle,,,,,,,,,False,0.010102122090756893,0.0026751020923256874,1.0000332593917847,0.13508382439613342,0.33927813172340393,-0.04904080927371979,0.0,0.0,90.0,24.0,0.024,0.00474191177636385,0.0009157356107607484,0.0238337479531765,-0.0004330007650423795,0.0005770777934230864,0.005250401329249144,0.24426014721393585,0.5637848377227783,0.04317227751016617,0.023781316354870796,0.005237730219960213,2.753448370640399e-06,0.00017276463040616363,3.8217010498046875,20.0,0.0,0.0,0.0,0.0,0.0,0.276,32.766,0.263,32.766,2.846,,,,,False,
1783703603.529401,2026-07-10T10:13:23,35067,20260710_101318,,,,,,ground_idle,,,,,,,,,False,0.010522248223423958,0.00596702191978693,1.0011870861053467,-0.30021190643310547,-0.11654046922922134,-0.0661424770951271,0.0,0.0,85.0,24.0,0.024,0.00474191177636385,0.0009157356107607484,0.0238337479531765,-0.0004330007650423795,0.0005770777934230864,0.005250401329249144,0.24426014721393585,0.5637848377227783,0.04317227751016617,0.023781316354870796,0.005237730219960213,2.753448370640399e-06,0.00017276463040616363,3.8217010498046875,20.0,0.0,0.0,0.0,0.0,0.0,0.276,32.766,0.263,32.766,2.846,,,,,False,
1783703603.5395977,2026-07-10T10:13:23,35077,20260710_101318,,,,,,ground_idle,,,,,,,,,False,0.009219123981893063,0.004329768009483814,0.9997009038925171,-0.016604434698820114,-0.01977022923529148,0.1842620074748993,0.0,-1.0,88.0,24.0,0.024,0.004734194837510586,0.0009266805718652904,0.023939132690429688,-0.00034953103750012815,0.0005788623820990324,0.005348621401935816,0.24331194162368774,0.5608536005020142,0.04196270927786827,0.023781316354870796,0.005237730219960213,2.753448370640399e-06,0.00017276463040616363,3.8217010498046875,20.0,0.0,0.0,0.0,0.0,0.0,0.276,32.766,0.263,32.766,2.846,,,,,False,
1783703603.549787,2026-07-10T10:13:23,35087,20260710_101318,,,,,,ground_idle,,,,,,,,,False,0.007794142700731754,0.004387167748063803,1.0005406141281128,0.1484813094139099,-0.11388500034809113,0.11201712489128113,0.0,0.0,89.0,24.0,0.024,0.004734194837510586,0.0009266805718652904,0.023939132690429688,-0.00034953103750012815,0.0005788623820990324,0.005348621401935816,0.24331194162368774,0.5608536005020142,0.04196270927786827,0.023781316354870796,0.005237730219960213,2.753448370640399e-06,0.00017276463040616363,3.8217010498046875,20.0,0.0,0.0,0.0,0.0,0.0,0.276,32.766,0.263,32.766,2.846,,,,,False,
1783703603.560028,2026-07-10T10:13:23,35095,20260710_101318,,,,,,ground_idle,,,,,,,,,False,0.010189168155193329,0.005256014410406351,1.0005117654800415,0.1482372283935547,-0.0008011191966943443,-0.09106506407260895,0.0,0.0,89.0,24.0,0.024,0.006155478302389383,0.0009090885287150741,0.024048293009400368,0.003214677330106497,0.0005578394047915936,0.005461107008159161,0.24382376670837402,0.5377948880195618,0.04422328621149063,0.024048293009400368,0.005428287200629711,4.697687018051511e-06,0.00022276281379163265,3.8217010498046875,20.0,0.0,0.0,0.0,0.0,0.0,0.275,32.766,0.263,32.766,2.849,2017.9522705078125,810.0128173828125,26.317670822143555,,False,
1783703603.5702264,2026-07-10T10:13:23,35107,20260710_101318,,,,,,ground_idle,,,,,,,,,False,0.00885423831641674,0.0060437084175646305,0.9988095164299011,-0.03383936733007431,0.06267686188220978,0.08490986377000809,0.0,0.0,89.0,23.0,0.023,0.006155478302389383,0.0009090885287150741,0.024048293009400368,0.003214677330106497,0.0005578394047915936,0.005461107008159161,0.24382376670837402,0.5377948880195618,0.04422328621149063,0.024048293009400368,0.005428287200629711,4.697687018051511e-06,0.00022276281379163265,3.8217010498046875,20.0,0.0,0.0,0.0,0.0,0.0,0.275,32.766,0.263,32.766,2.849,2017.9522705078125,810.0128173828125,26.317670822143555,,False,
1783703603.580387,2026-07-10T10:13:23,35117,20260710_101318,,,,,,ground_idle,,,,,,,,,False,0.008553028106689453,0.007404218427836895,0.9995901584625244,-0.14586122334003448,-0.3904586434364319,-0.28754541277885437,0.0,0.0,86.0,23.0,0.023,0.0062234303914010525,0.0009248703136108816,0.023661594837903976,0.0033044193405658007,0.0008113494259305298,0.003105535637587309,0.24367627501487732,0.5363016128540039,0.04320232942700386,0.024048293009400368,0.005428287200629711,4.697687018051511e-06,0.00022276281379163265,3.8217010498046875,20.0,0.0,0.0,0.0,0.0,0.0,0.275,32.766,0.263,32.766,2.849,2017.9522705078125,810.0128173828125,26.317670822143555,,False,
1783703603.5905566,2026-07-10T10:13:23,35127,20260710_101318,,,,,,ground_idle,,,,,,,,,False,0.010302705690264702,0.006383997388184071,1.0004781484603882,0.20251114666461945,0.12862195074558258,0.25449973344802856,0.0,0.0,85.0,23.0,0.023,0.0062234303914010525,0.0009248703136108816,0.023661594837903976,0.0033044193405658007,0.0008113494259305298,0.003105535637587309,0.24367627501487732,0.5363016128540039,0.04320232942700386,0.024048293009400368,0.005428287200629711,4.697687018051511e-06,0.00022276281379163265,3.8217010498046875,20.0,0.0,0.0,0.0,0.0,0.0,0.275,32.766,0.263,32.766,2.849,2017.9522705078125,810.0128173828125,26.317670822143555,,False,
1783703603.600756,2026-07-10T10:13:23,35137,20260710_101318,,,,,,ground_idle,,,,,,,,,False,0.010186241008341312,0.004687491804361343,1.0006204843521118,0.05230613425374031,-0.04091048240661621,-0.18901918828487396,0.0,0.0,89.0,25.0,0.025,0.006287901662290096,0.0009463330497965217,0.02372313290834427,0.003221569349989295,0.0013183270348235965,0.0030817585065960884,0.24211682379245758,0.5357331037521362,0.043307505548000336,0.024048293009400368,0.005428287200629711,4.697687018051511e-06,0.00022276281379163265,3.8217010498046875,20.0,0.0,0.0,0.0,0.0,0.0,0.275,32.766,0.263,32.766,2.849,2017.9522705078125,810.0128173828125,26.317670822143555,,False,
1783703603.6110206,2026-07-10T10:13:23,35147,20260710_101318,,,,,,ground_idle,,,,,,,,,False,0.011420758441090584,0.004772007465362549,1.000604271888733,-0.02005198411643505,-0.02226155623793602,0.09566248953342438,0.0,0.0,86.0,25.0,0.025,0.006287901662290096,0.0009463330497965217,0.02372313290834427,0.003221569349989295,0.0013183270348235965,0.0030817585065960884,0.24211682379245758,0.5357331037521362,0.043307505548000336,0.024286091327667236,0.005784343928098679,2.7534574655874167e-06,0.0001727700000628829,3.816422462463379,20.0,0.0,0.0,0.0,0.0,0.0,0.275,32.766,0.263,32.766,2.849,2017.9522705078125,810.0128173828125,26.317670822143555,,False,
1783703603.6211808,2026-07-10T10:13:23,35157,20260710_101318,,,,,,ground_idle,,,,,,,,,False,0.012081100605428219,0.0047857197932899,1.0002118349075317,-0.14492811262607574,0.027853036299347878,-0.06100276857614517,0.0,0.0,87.0,25.0,0.025,0.006351053714752197,0.0009718073415569961,0.02434469759464264,0.003459725994616747,0.0014647587668150663,0.0058998046442866325,0.24275530874729156,0.5323793292045593,0.040983863174915314,0.024286091327667236,0.005784343928098679,2.7534574655874167e-06,0.0001727700000628829,3.816422462463379,20.0,0.0,0.0,0.0,0.0,0.0,0.275,32.766,0.263,32.766,2.849,2017.9522705078125,810.0128173828125,26.317670822143555,,False,
1783703603.6313725,2026-07-10T10:13:23,35167,20260710_101318,,,,,,ground_idle,,,,,,,,,False,0.01124937180429697,0.004284413531422615,0.999629557132721,-0.10586533695459366,-0.04357701912522316,0.3161171078681946,0.0,0.0,85.0,25.0,0.025,0.006351053714752197,0.0009718073415569961,0.02434469759464264,0.003459725994616747,0.0014647587668150663,0.0058998046442866325,0.24275530874729156,0.5323793292045593,0.040983863174915314,0.024286091327667236,0.005784343928098679,2.7534574655874167e-06,0.0001727700000628829,3.816422462463379,20.0,0.0,0.0,0.0,0.0,0.0,0.275,32.766,0.263,32.766,2.849,2017.9522705078125,810.0128173828125,26.317670822143555,,False,
1783703603.64153,2026-07-10T10:13:23,35177,20260710_101318,,,,,,ground_idle,,,,,,,,,False,0.011048129759728909,0.005350352730602026,1.0020453929901123,0.2653180658817291,0.2895382344722748,-0.010650617070496082,0.0,0.0,92.0,25.0,0.025,0.0064253490418195724,0.0010019999463111162,0.024462934583425522,0.003931536804884672,0.0015412704087793827,0.005886383820325136,0.238991379737854,0.5299065113067627,0.04188736528158188,0.024286091327667236,0.005784343928098679,2.7534574655874167e-06,0.0001727700000628829,3.816422462463379,20.0,0.0,0.0,0.0,0.0,0.0,0.275,32.766,0.263,32.766,2.849,2017.9522705078125,810.0128173828125,26.317670822143555,,False,
1783703603.6516898,2026-07-10T10:13:23,35187,20260710_101318,,,,,,ground_idle,,,,,,,,,False,0.008092737756669521,0.006555969826877117,1.0011204481124878,0.20301255583763123,0.12019523233175278,-0.0986657440662384,0.0,0.0,90.0,25.0,0.025,0.0064253490418195724,0.0010019999463111162,0.024462934583425522,0.003931536804884672,0.0015412704087793827,0.005886383820325136,0.238991379737854,0.5299065113067627,0.04188736528158188,0.024286091327667236,0.005784343928098679,2.7534574655874167e-06,0.0001727700000628829,3.816422462463379,20.0,0.0,0.0,0.0,0.0,0.0,0.275,32.766,0.263,32.766,2.849,2017.9522705078125,810.0128173828125,26.317670822143555,,False,
1783703603.6619685,2026-07-10T10:13:23,35197,20260710_101318,,,,,,ground_idle,,,,,,,,,False,0.008667387999594212,0.0027725317049771547,0.9991180896759033,0.1837024837732315,-0.24604259431362152,-0.038606561720371246,0.0,0.0,88.0,22.0,0.022,0.006506655365228653,0.0010345657356083393,0.024584103375673294,0.00406879186630249,0.0017785798991099,0.006188186351209879,0.2393762171268463,0.5254790186882019,0.042355526238679886,0.024584103375673294,0.0061431387439370155,4.697709755419055e-06,0.00022277291282080114,3.8217010498046875,20.0,0.0,0.0,0.0,0.0,0.0,0.274,32.766,0.264,32.766,32.766,2017.97412109375,810.0106811523438,26.327285766601562,,False,
1783703603.6721652,2026-07-10T10:13:23,35207,20260710_101318,,,,,,ground_idle,,,,,,,,,False,0.009389090351760387,0.006185467354953289,1.0001949071884155,-0.22765125334262848,0.4753250181674957,0.09817089140415192,0.0,0.0,93.0,22.0,0.022,0.006506655365228653,0.0010345657356083393,0.024584103375673294,0.00406879186630249,0.0017785798991099,0.006188186351209879,0.2393762171268463,0.5254790186882019,0.042355526238679886,0.024584103375673294,0.0061431387439370155,4.697709755419055e-06,0.00022277291282080114,3.8217010498046875,20.0,0.0,0.0,0.0,0.0,0.0,0.274,32.766,0.264,32.766,32.766,2017.97412109375,810.0106811523438,26.327285766601562,,False,
1783703603.6823277,2026-07-10T10:13:23,35217,20260710_101318,,,,,,ground_idle,,,,,,,,,False,0.009264281950891018,0.005919655319303274,1.0016778707504272,-0.13667291402816772,0.32859525084495544,0.11949026584625244,0.0,0.0,92.0,22.0,0.022,0.006597512401640415,0.0010748388012871146,0.02348286099731922,0.004062898922711611,0.0018137493170797825,0.0002788794517982751,0.23771125078201294,0.5228593349456787,0.04029799997806549,0.024584103375673294,0.0061431387439370155,4.697709755419055e-06,0.00022277291282080114,3.8217010498046875,20.0,0.0,0.0,0.0,0.0,0.0,0.274,32.766,0.264,32.766,32.766,2017.97412109375,810.0106811523438,26.327285766601562,,False,
1783703603.6924505,2026-07-10T10:13:23,35230,20260710_101318,,,,,,ground_idle,,,,,,,,,False,0.012256006710231304,0.003470524214208126,1.0003561973571777,-0.3314598798751831,-0.024718768894672394,-0.15473923087120056,0.0,0.0,84.0,22.0,0.022,0.006680399179458618,0.0011142019648104906,0.023490585386753082,0.0043454356491565704,0.001997713465243578,0.0004589527961798012,0.23771125078201294,0.5228593349456787,0.04029799997806549,0.024584103375673294,0.0061431387439370155,4.697709755419055e-06,0.00022277291282080114,3.8217010498046875,20.0,0.0,0.0,0.0,0.0,0.0,0.274,32.766,0.264,32.766,32.766,2017.97412109375,810.0106811523438,26.327285766601562,,False,
1783703603.702609,2026-07-10T10:13:23,35237,20260710_101318,,,,,,ground_idle,,,,,,,,,False,0.011815426871180534,0.004625288769602776,0.9997379183769226,-0.06246287003159523,-0.13417240977287292,-0.1177884191274643,0.0,0.0,94.0,24.0,0.024,0.006680399179458618,0.0011142019648104906,0.023490585386753082,0.0043454356491565704,0.001997713465243578,0.0004589527961798012,0.23571491241455078,0.5182843804359436,0.04041200131177902,0.024584103375673294,0.0061431387439370155,4.697709755419055e-06,0.00022277291282080114,3.8217010498046875,20.0,0.0,0.0,0.0,0.0,0.0,0.274,32.766,0.264,32.766,32.766,2017.97412109375,810.0106811523438,26.327285766601562,,False,
1783703603.7127762,2026-07-10T10:13:23,35247,20260710_101318,,,,,,ground_idle,,,,,,,,,False,0.009417291730642319,0.004437754862010479,1.0005656480789185,-0.227206751704216,-0.1032395139336586,-0.05478085204958916,0.0,0.0,96.0,24.0,0.024,0.006680399179458618,0.0011142019648104906,0.023490585386753082,0.0043454356491565704,0.001997713465243578,0.0004589527961798012,0.23571491241455078,0.5182843804359436,0.04041200131177902,0.023707326501607895,0.0014718109741806984,2.7534554192243377e-06,0.00017277737788390368,3.816422462463379,20.0,0.0,0.0,0.0,0.0,0.0,0.274,32.766,0.264,32.766,32.766,2017.97412109375,810.0106811523438,26.327285766601562,,False,
1783703603.722936,2026-07-10T10:13:23,35257,20260710_101318,,,,,,ground_idle,,,,,,,,,False,0.009568501263856888,0.0033078689593821764,1.0015573501586914,0.24202032387256622,0.11192753165960312,-0.08343151211738586,0.0,0.0,85.0,24.0,0.024,0.00677034305408597,0.0011534694349393249,0.023722663521766663,0.004729774780571461,0.002027758164331317,0.0015457309782505035,0.23402807116508484,0.5177233219146729,0.04102475568652153,0.023707326501607895,0.0014718109741806984,2.7534554192243377e-06,0.00017277737788390368,3.816422462463379,20.0,0.0,0.0,0.0,0.0,0.0,0.274,32.766,0.264,32.766,32.766,2017.97412109375,810.0106811523438,26.327285766601562,,False,
1783703603.7331166,2026-07-10T10:13:23,35270,20260710_101318,,,,,,ground_idle,,,,,,,,,False,0.010560045950114727,0.0039563472382724285,1.0025156736373901,0.19143661856651306,-0.11011186242103577,0.0348627008497715,0.0,0.0,95.0,24.0,0.024,0.006866164971143007,0.0011928500607609749,0.023757223039865494,0.004907267168164253,0.0019484180957078934,0.0019421285251155496,0.23402807116508484,0.5177233219146729,0.04102475568652153,0.023707326501607895,0.0014718109741806984,2.7534554192243377e-06,0.00017277737788390368,3.816422462463379,20.0,0.0,0.0,0.0,0.0,0.0,0.274,32.766,0.264,32.766,32.766,2017.97412109375,810.0106811523438,26.327285766601562,,False,
1783703603.743293,2026-07-10T10:13:23,35277,20260710_101318,,,,,,ground_idle,,,,,,,,,False,0.010330925695598125,0.0037888172082602978,0.9990091323852539,-0.1786254197359085,-0.32699885964393616,-0.07043028622865677,0.0,0.0,87.0,24.0,0.024,0.006866164971143007,0.0011928500607609749,0.023757223039865494,0.004907267168164253,0.0019484180957078934,0.0019421285251155496,0.23652127385139465,0.5154194235801697,0.04184829816222191,0.023707326501607895,0.0014718109741806984,2.7534554192243377e-06,0.00017277737788390368,3.816422462463379,20.0,0.0,0.0,0.0,0.0,0.0,0.274,32.766,0.264,32.766,32.766,2017.97412109375,810.0106811523438,26.327285766601562,,False,
1783703603.7534628,2026-07-10T10:13:23,35290,20260710_101318,,,,,,ground_idle,,,,,,,,,False,0.010741738602519035,0.0036962763406336308,0.9996150135993958,0.23130866885185242,0.028864901512861252,0.058886729180812836,0.0,0.0,80.0,24.0,0.024,0.006967558059841394,0.0012312295148149133,0.02379550412297249,0.005220681428909302,0.0018862205324694514,0.001843256875872612,0.23652127385139465,0.5154194235801697,0.04184829816222191,0.023707326501607895,0.0014718109741806984,2.7534554192243377e-06,0.00017277737788390368,3.816422462463379,20.0,0.0,0.0,0.0,0.0,0.0,0.274,32.766,0.264,32.766,32.766,2017.97412109375,810.0106811523438,26.327285766601562,,False,
1783703603.763629,2026-07-10T10:13:23,35297,20260710_101318,,,,,,ground_idle,,,,,,,,,False,0.010144397616386414,0.0057202475145459175,0.9997989535331726,-0.16960178315639496,-0.06252890080213547,0.04154634103178978,0.0,0.0,91.0,23.0,0.023,0.006967558059841394,0.0012312295148149133,0.02379550412297249,0.005220681428909302,0.0018862205324694514,0.001843256875872612,0.23674842715263367,0.515564501285553,0.040863774716854095,0.02379550412297249,0.0017884030239656568,4.697708845924353e-06,0.00022278206597547978,3.8217010498046875,20.0,0.0,0.0,0.0,0.0,0.0,0.279,32.766,0.268,32.766,32.766,2017.9959716796875,810.0089721679688,26.335397720336914,,False,
1783703603.7737916,2026-07-10T10:13:23,35311,20260710_101318,,,,,,ground_idle,,,,,,,,,False,0.01241748034954071,0.004957755096256733,0.9977466464042664,0.021166758611798286,0.1823596954345703,0.002662097569555044,0.0,0.0,91.0,23.0,0.023,0.007078968919813633,0.0012726285494863987,0.023454779759049416,0.0056215450167655945,0.0021118109580129385,-0.00012527278158813715,0.23520910739898682,0.5114501714706421,0.04048468917608261,0.02379550412297249,0.0017884030239656568,4.697708845924353e-06,0.00022278206597547978,3.8217010498046875,20.0,0.0,0.0,0.0,0.0,0.0,0.279,32.766,0.268,32.766,32.766,2017.9959716796875,810.0089721679688,26.335397720336914,,False,
1783703603.7840798,2026-07-10T10:13:23,35317,20260710_101318,,,,,,ground_idle,,,,,,,,,False,0.012694133445620537,0.004077445715665817,1.0007960796356201,-0.03687874600291252,0.05035361647605896,0.162682443857193,0.0,0.0,84.0,23.0,0.023,0.007078968919813633,0.0012726285494863987,0.023454779759049416,0.0056215450167655945,0.0021118109580129385,-0.00012527278158813715,0.23520910739898682,0.5114501714706421,0.04048468917608261,0.02379550412297249,0.0017884030239656568,4.697708845924353e-06,0.00022278206597547978,3.8217010498046875,20.0,0.0,0.0,0.0,0.0,0.0,0.279,32.766,0.268,32.766,32.766,2017.9959716796875,810.0089721679688,26.335397720336914,,False,
1783703603.7942774,2026-07-10T10:13:23,35331,20260710_101318,,,,,,ground_idle,,,,,,,,,False,0.009701906703412533,0.005989748518913984,1.0001741647720337,0.19585804641246796,-0.01747395098209381,-0.12324738502502441,0.0,0.0,80.0,23.0,0.023,0.007197846192866564,0.001315987086854875,0.02345292456448078,0.00616105180233717,0.002264571376144886,-6.48399509373121e-05,0.23579804599285126,0.5073375701904297,0.040856361389160156,0.02379550412297249,0.0017884030239656568,4.697708845924353e-06,0.00022278206597547978,3.8217010498046875,20.0,0.0,0.0,0.0,0.0,0.0,0.279,32.766,0.268,32.766,32.766,2017.9959716796875,810.0089721679688,26.335397720336914,,False,
1783703603.8044574,2026-07-10T10:13:23,35342,20260710_101318,,,,,,ground_idle,,,,,,,,,False,0.010200440883636475,0.004288994707167149,0.9997913837432861,0.2541379928588867,0.10995499044656754,0.19666405022144318,0.0,0.0,94.0,23.0,0.023,0.007197846192866564,0.001315987086854875,0.02345292456448078,0.00616105180233717,0.002264571376144886,-6.48399509373121e-05,0.23579804599285126,0.5073375701904297,0.040856361389160156,0.023263616487383842,-0.0010810738895088434,2.7534549644769868e-06,0.00017278575978707522,3.8217010498046875,20.0,0.0,0.0,0.0,0.0,0.0,0.279,32.766,0.268,32.766,32.766,2017.9959716796875,810.0089721679688,26.335397720336914,,False,
1783703603.814627,2026-07-10T10:13:23,35351,20260710_101318,,,,,,ground_idle,,,,,,,,,False,0.00938633643090725,0.003754492150619626,0.9994101524353027,-0.02908644825220108,0.23573213815689087,-0.19273430109024048,0.0,0.0,88.0,23.0,0.023,0.007324529811739922,0.0013629017630591989,0.02325308881700039,0.006335136480629444,0.0022912160493433475,-0.0010887839598581195,0.23709754645824432,0.5035364031791687,0.040390968322753906,0.023263616487383842,-0.0010810738895088434,2.7534549644769868e-06,0.00017278575978707522,3.8217010498046875,20.0,0.0,0.0,0.0,0.0,0.0,0.279,32.766,0.268,32.766,32.766,2017.9959716796875,810.0089721679688,26.335397720336914,,False,
1783703603.8248053,2026-07-10T10:13:23,35357,20260710_101318,,,,,,ground_idle,,,,,,,,,False,0.010265703313052654,0.0030086080078035593,0.9986691474914551,0.06600674986839294,0.32722121477127075,-0.08854755759239197,0.0,0.0,84.0,23.0,0.023,0.007324529811739922,0.0013629017630591989,0.02325308881700039,0.006335136480629444,0.0022912160493433475,-0.0010887839598581195,0.23709754645824432,0.5035364031791687,0.040390968322753906,0.023263616487383842,-0.0010810738895088434,2.7534549644769868e-06,0.00017278575978707522,3.8217010498046875,20.0,0.0,0.0,0.0,0.0,0.0,0.279,32.766,0.268,32.766,32.766,2017.9959716796875,810.0089721679688,26.335397720336914,,False,
1783703603.8354125,2026-07-10T10:13:23,35371,20260710_101318,,,,,,ground_idle,,,,,,,,,False,0.009467401541769505,0.005663247779011726,1.0002903938293457,0.0005577252013608813,-0.26220956444740295,0.24033217132091522,0.0,0.0,89.0,23.0,0.023,0.007453046273440123,0.0014084320282563567,0.023229414597153664,0.006496017798781395,0.002337589394301176,-0.0011841632658615708,0.23711811006069183,0.5033981204032898,0.042077016085386276,0.023263616487383842,-0.0010810738895088434,2.7534549644769868e-06,0.00017278575978707522,3.8217010498046875,20.0,0.0,0.0,0.0,0.0,0.0,0.279,32.766,0.268,32.766,32.766,2017.9959716796875,810.0089721679688,26.335397720336914,,False,
1783703603.8455815,2026-07-10T10:13:23,35377,20260710_101318,,,,,,ground_idle,,,,,,,,,False,0.011187726631760597,0.006595638580620289,0.9979722499847412,-0.057679902762174606,0.31972262263298035,-0.0045799133367836475,0.0,0.0,88.0,23.0,0.023,0.007453046273440123,0.0014084320282563567,0.023229414597153664,0.006496017798781395,0.002337589394301176,-0.0011841632658615708,0.23711811006069183,0.5033981204032898,0.042077016085386276,0.023263616487383842,-0.0010810738895088434,2.7534549644769868e-06,0.00017278575978707522,3.8217010498046875,20.0,0.0,0.0,0.0,0.0,0.0,0.279,32.766,0.268,32.766,32.766,2017.9959716796875,810.0089721679688,26.335397720336914,,False,
1783703603.855748,2026-07-10T10:13:23,35392,20260710_101318,,,,,,ground_idle,,,,,,,,,False,0.009336662478744984,0.007009587716311216,1.0002845525741577,-0.15444214642047882,-0.09867428243160248,0.05868605896830559,0.0,0.0,85.0,23.0,0.023,0.007586455903947353,0.001459816936403513,0.023203430697321892,0.006849997211247683,0.002804120536893606,-0.0013545674737542868,0.23621250689029694,0.5024479627609253,0.04232143238186836,0.023203430697321892,-0.0014261333271861076,4.6977115744084585e-06,0.00022279098629951477,3.8217010498046875,20.0,0.0,0.0,0.0,0.0,0.0,0.279,32.766,0.268,32.766,32.766,2017.9959716796875,810.0089721679688,26.335397720336914,,False,
1783703603.8659751,2026-07-10T10:13:23,35397,20260710_101318,,,,,,ground_idle,,,,,,,,,False,0.010186458006501198,0.007274364586919546,0.9998300671577454,-0.06188501417636871,-0.07171936333179474,-0.10750532150268555,0.0,1.0,87.0,22.0,0.022,0.007586455903947353,0.001459816936403513,0.023203430697321892,0.006849997211247683,0.002804120536893606,-0.0013545674737542868,0.23621250689029694,0.5024479627609253,0.04232143238186836,0.023203430697321892,-0.0014261333271861076,4.6977115744084585e-06,0.00022279098629951477,3.816422462463379,20.0,0.0,0.0,0.0,0.0,0.0,0.277,32.766,0.264,32.766,2.857,2018.0068359375,810.0079345703125,26.343603134155273,,False,
1783703603.8761394,2026-07-10T10:13:23,35411,20260710_101318,,,,,,ground_idle,,,,,,,,,False,0.011960838921368122,0.005882453639060259,1.0004236698150635,0.003939186222851276,0.19999489188194275,0.2540336549282074,0.0,0.0,93.0,22.0,0.022,0.004430362489074469,0.0011919219978153706,0.02260896936058998,-0.0006629024283029139,0.0025346623733639717,-0.0039920206181705,0.23995709419250488,0.5435017347335815,0.0408717542886734,0.023203430697321892,-0.0014261333271861076,4.6977115744084585e-06,0.00022279098629951477,3.816422462463379,20.0,0.0,0.0,0.0,0.0,0.0,0.277,32.766,0.264,32.766,2.857,2018.0068359375,810.0079345703125,26.343603134155273,,False,
1783703603.8862996,2026-07-10T10:13:23,35417,20260710_101318,,,,,,ground_idle,,,,,,,,,False,0.010383464395999908,0.005533317103981972,0.9988736510276794,0.17251455783843994,0.03288503363728523,0.13774891197681427,0.0,0.0,90.0,22.0,0.022,0.004430362489074469,0.0011919219978153706,0.02260896936058998,-0.0006629024283029139,0.0025346623733639717,-0.0039920206181705,0.23995709419250488,0.5435017347335815,0.0408717542886734,0.023203430697321892,-0.0014261333271861076,4.6977115744084585e-06,0.00022279098629951477,3.816422462463379,20.0,0.0,0.0,0.0,0.0,0.0,0.277,32.766,0.264,32.766,2.857,2018.0068359375,810.0079345703125,26.343603134155273,,False,
1783703603.8964612,2026-07-10T10:13:23,35431,20260710_101318,,,,,,ground_idle,,,,,,,,,False,0.010725300759077072,0.002851446159183979,1.0001953840255737,0.26893776655197144,-0.14216087758541107,-0.0618012361228466,0.0,-1.0,81.0,22.0,0.022,0.006476637441664934,0.0009392954525537789,0.022529084235429764,0.004475680645555258,0.0018192256102338433,-0.004097992088645697,0.24730032682418823,0.5160515904426575,0.04304381459951401,0.023203430697321892,-0.0014261333271861076,4.6977115744084585e-06,0.00022279098629951477,3.816422462463379,20.0,0.0,0.0,0.0,0.0,0.0,0.277,32.766,0.264,32.766,2.857,2018.0068359375,810.0079345703125,26.343603134155273,,False,
1783703603.906629,2026-07-10T10:13:23,35442,20260710_101318,,,,,,ground_idle,,,,,,,,,False,0.008247528225183487,0.004560266621410847,1.0008184909820557,0.052515968680381775,0.07336518168449402,0.012222902849316597,0.0,0.0,93.0,22.0,0.022,0.006476637441664934,0.0009392954525537789,0.022529084235429764,0.004475680645555258,0.0018192256102338433,-0.004097992088645697,0.24730032682418823,0.5160515904426575,0.04304381459951401,0.02226816862821579,-0.005168046336621046,2.7534342734725215e-06,0.00017276799189858139,3.816422462463379,20.0,0.0,0.0,0.0,0.0,0.0,0.277,32.766,0.264,32.766,2.857,2018.0068359375,810.0079345703125,26.343603134155273,,False,
1783703603.9168303,2026-07-10T10:13:23,35451,20260710_101318,,,,,,ground_idle,,,,,,,,,False,0.011648237705230713,0.0039816610515117645,1.0031063556671143,0.0370112881064415,0.09794079512357712,0.09666361659765244,0.0,0.0,95.0,22.0,0.022,0.006568122189491987,0.0009750311728566885,0.022217988967895508,0.004646374844014645,0.0017317248275503516,-0.00491538317874074,0.24783815443515778,0.5155889391899109,0.04254419356584549,0.02226816862821579,-0.005168046336621046,2.7534342734725215e-06,0.00017276799189858139,3.816422462463379,20.0,0.0,0.0,0.0,0.0,0.0,0.277,32.766,0.264,32.766,2.857,2018.0068359375,810.0079345703125,26.343603134155273,,False,
1783703603.9271016,2026-07-10T10:13:23,35457,20260710_101318,,,,,,ground_idle,,,,,,,,,False,0.010919283144176006,0.003736098064109683,1.0008052587509155,0.08994343876838684,0.07450252771377563,0.09161117672920227,0.0,0.0,91.0,22.0,0.022,0.006568122189491987,0.0009750311728566885,0.022217988967895508,0.004646374844014645,0.0017317248275503516,-0.00491538317874074,0.24783815443515778,0.5155889391899109,0.04254419356584549,0.02226816862821579,-0.005168046336621046,2.7534342734725215e-06,0.00017276799189858139,3.816422462463379,20.0,0.0,0.0,0.0,0.0,0.0,0.277,32.766,0.264,32.766,2.857,2018.0068359375,810.0079345703125,26.343603134155273,,False,
1783703603.9373567,2026-07-10T10:13:23,35475,20260710_101318,,,,,,ground_idle,,,,,,,,,False,0.007610964123159647,0.0057975053787231445,0.999470055103302,0.20206952095031738,0.016487328335642815,0.00644622603431344,0.0,0.0,92.0,22.0,0.022,0.006665071472525597,0.0010093840537592769,0.022122012451291084,0.004985641688108444,0.0017642939928919077,-0.004879233427345753,0.24800407886505127,0.5133079886436462,0.042368851602077484,0.02226816862821579,-0.005168046336621046,2.7534342734725215e-06,0.00017276799189858139,3.816422462463379,20.0,0.0,0.0,0.0,0.0,0.0,0.277,32.766,0.264,32.766,2.857,2018.0068359375,810.0079345703125,26.343603134155273,,False,
1783703603.9475377,2026-07-10T10:13:23,35485,20260710_101318,,,,,,ground_idle,,,,,,,,,False,0.007980105467140675,0.00486833555623889,1.0010265111923218,-0.016296066343784332,-0.2115560621023178,0.20953680574893951,0.0,0.0,92.0,22.0,0.022,0.006665071472525597,0.0010093840537592769,0.022122012451291084,0.004985641688108444,0.0017642939928919077,-0.004879233427345753,0.24800407886505127,0.5133079886436462,0.042368851602077484,0.02226816862821579,-0.005168046336621046,2.7534342734725215e-06,0.00017276799189858139,3.816422462463379,20.0,0.0,0.0,0.0,0.0,0.0,0.277,32.766,0.264,32.766,2.857,2018.0068359375,810.0079345703125,26.343603134155273,,False,
1783703603.9577136,2026-07-10T10:13:23,35494,20260710_101318,,,,,,ground_idle,,,,,,,,,False,0.007980105467140675,0.00486833555623889,1.0010265111923218,-0.016296066343784332,-0.2115560621023178,0.20953680574893951,0.0,0.0,85.0,22.0,0.022,0.0067633516155183315,0.0010471232235431671,0.022023223340511322,0.0048157391138374805,0.00199677562341094,-0.004925030283629894,0.24832044541835785,0.5154367089271545,0.045096226036548615,0.022023223340511322,-0.004976768046617508,4.697679287346546e-06,0.00022277183597907424,3.8217010498046875,20.0,0.0,0.0,0.0,0.0,0.0,0.275,0.396,0.266,32.766,32.766,2018.0068359375,810.0079345703125,26.343603134155273,,False,
1783703603.9680195,2026-07-10T10:13:23,35505,20260710_101318,,,,,,ground_idle,,,,,,,,,False,0.012528960593044758,0.004256812389940023,1.0025728940963745,-0.11272195726633072,-0.4462231397628784,0.1886359453201294,0.0,0.0,86.0,23.0,0.023,0.0067633516155183315,0.0010471232235431671,0.022023223340511322,0.0048157391138374805,0.00199677562341094,-0.004925030283629894,0.24832044541835785,0.5154367089271545,0.045096226036548615,0.022023223340511322,-0.004976768046617508,4.697679287346546e-06,0.00022277183597907424,3.8217010498046875,20.0,0.0,0.0,0.0,0.0,0.0,0.275,0.396,0.266,32.766,32.766,2017.9193115234375,810.015625,26.3514404296875,,False,
1783703603.9781978,2026-07-10T10:13:23,35515,20260710_101318,,,,,,ground_idle,,,,,,,,,False,0.010730188339948654,0.005232573952525854,1.0013668537139893,-0.05125361680984497,0.12689372897148132,0.14002397656440735,0.0,0.0,88.0,23.0,0.023,0.006861371919512749,0.0010863530915230513,0.02239106222987175,0.005373246502131224,0.0019392017275094986,-0.0023269052617251873,0.24792230129241943,0.5180871486663818,0.04563148692250252,0.022023223340511322,-0.004976768046617508,4.697679287346546e-06,0.00022277183597907424,3.8217010498046875,20.0,0.0,0.0,0.0,0.0,0.0,0.275,0.396,0.266,32.766,32.766,2017.9193115234375,810.015625,26.3514404296875,,False,
1783703603.9883816,2026-07-10T10:13:23,35525,20260710_101318,,,,,,ground_idle,,,,,,,,,False,0.012012461200356483,0.005139355082064867,1.001822590827942,0.06927657872438431,-0.09748035669326782,0.008522647432982922,0.0,0.0,87.0,23.0,0.023,0.006861371919512749,0.0010863530915230513,0.02239106222987175,0.005373246502131224,0.0019392017275094986,-0.0023269052617251873,0.24792230129241943,0.5180871486663818,0.04563148692250252,0.022023223340511322,-0.004976768046617508,4.697679287346546e-06,0.00022277183597907424,3.8217010498046875,20.0,0.0,0.0,0.0,0.0,0.0,0.275,0.396,0.266,32.766,32.766,2017.9193115234375,810.015625,26.3514404296875,,False,
1783703603.9985468,2026-07-10T10:13:23,35535,20260710_101318,,,,,,ground_idle,,,,,,,,,False,0.010285192169249058,0.004839644301682711,1.0003663301467896,0.0012968463124707341,-0.06409477442502975,0.01524592936038971,0.0,0.0,89.0,23.0,0.023,0.006972430739551783,0.0011267053196206689,0.022348055616021156,0.00578626524657011,0.0020808535628020763,-0.0019790721125900745,0.24797376990318298,0.5149312019348145,0.04676496237516403,0.022023223340511322,-0.004976768046617508,4.697679287346546e-06,0.00022277183597907424,3.8217010498046875,20.0,0.0,0.0,0.0,0.0,0.0,0.275,0.396,0.266,32.766,32.766,2017.9193115234375,810.015625,26.3514404296875,,False,
1783703604.0087316,2026-07-10T10:13:24,35545,20260710_101318,,,,,,ground_idle,,,,,,,,,False,0.010738508775830269,0.004888290539383888,0.9981978535652161,0.2949894070625305,0.3430093824863434,-0.07556974142789841,0.0,0.0,90.0,23.0,0.023,0.006972430739551783,0.0011267053196206689,0.022348055616021156,0.00578626524657011,0.0020808535628020763,-0.0019790721125900745,0.24797376990318298,0.5149312019348145,0.04676496237516403,0.02260027453303337,-0.0005812222370877862,2.753449507508776e-06,0.00017278044833801687,3.816422462463379,20.0,0.0,0.0,0.0,0.0,0.0,0.275,0.396,0.266,32.766,32.766,2017.9193115234375,810.015625,26.3514404296875,,False,
1783703604.0189848,2026-07-10T10:13:24,35557,20260710_101318,,,,,,ground_idle,,,,,,,,,False,0.010731946676969528,0.004689554218202829,0.9985077381134033,-0.1430213302373886,-0.23640502989292145,0.17516101896762848,0.0,0.0,93.0,23.0,0.023,0.007089553866535425,0.0011690810788422823,0.022594258189201355,0.006119529716670513,0.002197815338149667,-0.0006841556169092655,0.24996735155582428,0.5104846954345703,0.046765364706516266,0.02260027453303337,-0.0005812222370877862,2.753449507508776e-06,0.00017278044833801687,3.816422462463379,20.0,0.0,0.0,0.0,0.0,0.0,0.275,0.396,0.266,32.766,32.766,2017.9193115234375,810.015625,26.3514404296875,,False,
1783703604.0291677,2026-07-10T10:13:24,35565,20260710_101318,,,,,,ground_idle,,,,,,,,,False,0.011937327682971954,0.004110564012080431,1.0000014305114746,-0.005330100655555725,-0.11693976074457169,0.013838850893080235,0.0,0.0,93.0,23.0,0.023,0.007089553866535425,0.0011690810788422823,0.022594258189201355,0.006119529716670513,0.002197815338149667,-0.0006841556169092655,0.24996735155582428,0.5104846954345703,0.046765364706516266,0.02260027453303337,-0.0005812222370877862,2.753449507508776e-06,0.00017278044833801687,3.816422462463379,20.0,0.0,0.0,0.0,0.0,0.0,0.275,0.396,0.266,32.766,32.766,2017.9193115234375,810.015625,26.3514404296875,,False,
1783703604.0393531,2026-07-10T10:13:24,35577,20260710_101318,,,,,,ground_idle,,,,,,,,,False,0.009886875748634338,0.0031612119637429714,0.999135434627533,0.08751778304576874,0.5018346905708313,0.09577544778585434,0.0,0.0,88.0,23.0,0.023,0.007215435616672039,0.0012133202981203794,0.022577498108148575,0.006567984353750944,0.0022183875553309917,-0.0008944153669290245,0.24969696998596191,0.5113880038261414,0.04621874541044235,0.02260027453303337,-0.0005812222370877862,2.753449507508776e-06,0.00017278044833801687,3.816422462463379,20.0,0.0,0.0,0.0,0.0,0.0,0.275,0.396,0.266,32.766,32.766,2017.9193115234375,810.015625,26.3514404296875,,False,
1783703604.0495808,2026-07-10T10:13:24,35587,20260710_101318,,,,,,ground_idle,,,,,,,,,False,0.009079083800315857,0.004801481030881405,0.9984835386276245,0.07640659064054489,-0.17719165980815887,-0.014261296018958092,0.0,0.0,87.0,23.0,0.023,0.007215435616672039,0.0012133202981203794,0.022577498108148575,0.006567984353750944,0.0022183875553309917,-0.0008944153669290245,0.24969696998596191,0.5113880038261414,0.04621874541044235,0.02260027453303337,-0.0005812222370877862,2.753449507508776e-06,0.00017278044833801687,3.816422462463379,20.0,0.0,0.0,0.0,0.0,0.0,0.275,0.396,0.266,32.766,32.766,2017.9193115234375,810.015625,26.3514404296875,,False,
1783703604.059793,2026-07-10T10:13:24,35595,20260710_101318,,,,,,ground_idle,,,,,,,,,False,0.010162053629755974,0.006807300727814436,1.001169204711914,-0.07710021734237671,-0.04697321727871895,0.09609102457761765,0.0,0.0,87.0,23.0,0.023,0.007349003572016954,0.0012558572925627232,0.02255822718143463,0.006745541468262672,0.0020986751187592745,-0.0010753519600257277,0.2503746449947357,0.5070065855979919,0.04565643146634102,0.02255822718143463,-0.001144153531640768,4.6977038437034935e-06,0.00022278442338574678,3.8217010498046875,20.0,0.0,0.0,0.0,0.0,0.0,0.278,32.766,0.267,32.766,2.84,2017.9466552734375,810.0133666992188,26.35841941833496,,False,
1783703604.0700345,2026-07-10T10:13:24,35607,20260710_101318,,,,,,ground_idle,,,,,,,,,False,0.008958873338997364,0.005565491039305925,1.0007810592651367,0.13097666203975677,0.07668869942426682,-0.12455226480960846,0.0,0.0,90.0,21.0,0.021,0.007349003572016954,0.0012558572925627232,0.02255822718143463,0.006745541468262672,0.0020986751187592745,-0.0010753519600257277,0.2503746449947357,0.5070065855979919,0.04565643146634102,0.02255822718143463,-0.001144153531640768,4.6977038437034935e-06,0.00022278442338574678,3.8217010498046875,20.0,0.0,0.0,0.0,0.0,0.0,0.278,32.766,0.267,32.766,2.84,2017.9466552734375,810.0133666992188,26.35841941833496,,False,
1783703604.0803046,2026-07-10T10:13:24,35617,20260710_101318,,,,,,ground_idle,,,,,,,,,False,0.01141712348908186,0.003707565600052476,1.001603126525879,-0.03533722460269928,-0.17772276699543,0.08477115631103516,0.0,0.0,93.0,21.0,0.021,0.007491244934499264,0.0013037059688940644,0.021799622103571892,0.006911357864737511,0.002488160040229559,-0.0044205146841704845,0.2496543675661087,0.5067319869995117,0.045607294887304306,0.02255822718143463,-0.001144153531640768,4.6977038437034935e-06,0.00022278442338574678,3.8217010498046875,20.0,0.0,0.0,0.0,0.0,0.0,0.278,32.766,0.267,32.766,2.84,2017.9466552734375,810.0133666992188,26.35841941833496,,False,
1783703604.090557,2026-07-10T10:13:24,35627,20260710_101318,,,,,,ground_idle,,,,,,,,,False,0.010647503659129143,0.00456435140222311,0.9990648627281189,0.0025185775011777878,-0.08142126351594925,0.04821344092488289,0.0,0.0,88.0,21.0,0.021,0.007491244934499264,0.0013037059688940644,0.021799622103571892,0.006911357864737511,0.002488160040229559,-0.0044205146841704845,0.2496543675661087,0.5067319869995117,0.045607294887304306,0.02255822718143463,-0.001144153531640768,4.6977038437034935e-06,0.00022278442338574678,3.8217010498046875,20.0,0.0,0.0,0.0,0.0,0.0,0.278,32.766,0.267,32.766,2.84,2017.9466552734375,810.0133666992188,26.35841941833496,,False,
1783703604.1008258,2026-07-10T10:13:24,35637,20260710_101318,,,,,,ground_idle,,,,,,,,,False,0.010172202251851559,0.006005697883665562,1.0003496408462524,-0.45840421319007874,-0.011843200773000717,-0.1286890059709549,0.0,0.0,86.0,22.0,0.022,0.007633098866790533,0.0013531838776543736,0.021713674068450928,0.007270426955074072,0.002463387791067362,-0.004280064254999161,0.25022628903388977,0.5086212754249573,0.0453716516494751,0.02255822718143463,-0.001144153531640768,4.6977038437034935e-06,0.00022278442338574678,3.8217010498046875,20.0,0.0,0.0,0.0,0.0,0.0,0.278,32.766,0.267,32.766,2.84,2017.9466552734375,810.0133666992188,26.35841941833496,,False,
1783703604.1110368,2026-07-10T10:13:24,35647,20260710_101318,,,,,,ground_idle,,,,,,,,,False,0.012509441934525967,0.004660825245082378,0.9998837113380432,0.075133316218853,0.07935182005167007,0.26520708203315735,0.0,0.0,87.0,22.0,0.022,0.007633098866790533,0.0013531838776543736,0.021713674068450928,0.007270426955074072,0.002463387791067362,-0.004280064254999161,0.25022628903388977,0.5086212754249573,0.0453716516494751,0.021790102124214172,-0.003762152511626482,2.753444277914241e-06,0.0001727914495859295,3.8217010498046875,20.0,0.0,0.0,0.0,0.0,0.0,0.278,32.766,0.267,32.766,2.84,2017.9466552734375,810.0133666992188,26.35841941833496,,False,
1783703604.1212218,2026-07-10T10:13:24,35657,20260710_101318,,,,,,ground_idle,,,,,,,,,False,0.011199736967682838,0.004953335504978895,0.9990508556365967,-0.04185505956411362,0.14221234619617462,-0.027053361758589745,0.0,0.0,88.0,22.0,0.022,0.007780991028994322,0.001404386479407549,0.021753260865807533,0.007687577046453953,0.0026770702097564936,-0.003682401729747653,0.24715948104858398,0.5079877972602844,0.045407649129629135,0.021790102124214172,-0.003762152511626482,2.753444277914241e-06,0.0001727914495859295,3.8217010498046875,20.0,0.0,0.0,0.0,0.0,0.0,0.278,32.766,0.267,32.766,2.84,2017.9466552734375,810.0133666992188,26.35841941833496,,False,
1783703604.1314564,2026-07-10T10:13:24,35667,20260710_101318,,,,,,ground_idle,,,,,,,,,False,0.011317611671984196,0.0034041518811136484,0.9980942606925964,-0.010820900090038776,-0.39516323804855347,-0.22419345378875732,0.0,0.0,93.0,22.0,0.022,0.007780991028994322,0.001404386479407549,0.021753260865807533,0.007687577046453953,0.0026770702097564936,-0.003682401729747653,0.24715948104858398,0.5079877972602844,0.045407649129629135,0.021790102124214172,-0.003762152511626482,2.753444277914241e-06,0.0001727914495859295,3.8217010498046875,20.0,0.0,0.0,0.0,0.0,0.0,0.278,32.766,0.267,32.766,2.84,2017.9466552734375,810.0133666992188,26.35841941833496,,False,
1783703604.1416845,2026-07-10T10:13:24,35677,20260710_101318,,,,,,ground_idle,,,,,,,,,False,0.010366518050432205,0.0037281361874192953,0.999288022518158,-0.017813092097640038,0.21620091795921326,0.07545734196901321,0.0,0.0,92.0,22.0,0.022,0.007940306328237057,0.0014582209987565875,0.021677827462553978,0.008200636133551598,0.0026446294505149126,-0.003902020864188671,0.24574235081672668,0.508389949798584,0.04462428018450737,0.021790102124214172,-0.003762152511626482,2.753444277914241e-06,0.0001727914495859295,3.8217010498046875,20.0,0.0,0.0,0.0,0.0,0.0,0.278,32.766,0.267,32.766,2.84,2017.9466552734375,810.0133666992188,26.35841941833496,,False,
1783703604.151851,2026-07-10T10:13:24,35687,20260710_101318,,,,,,ground_idle,,,,,,,,,False,0.009386543184518814,0.005539062898606062,1.0014879703521729,-0.0229949988424778,0.22360098361968994,0.11605654656887054,0.0,0.0,83.0,22.0,0.022,0.007940306328237057,0.0014582209987565875,0.021677827462553978,0.008200636133551598,0.0026446294505149126,-0.003902020864188671,0.24574235081672668,0.508389949798584,0.04462428018450737,0.021790102124214172,-0.003762152511626482,2.753444277914241e-06,0.0001727914495859295,3.8217010498046875,20.0,0.0,0.0,0.0,0.0,0.0,0.278,32.766,0.267,32.766,2.84,2017.9466552734375,810.0133666992188,26.35841941833496,,False,
1783703604.1621685,2026-07-10T10:13:24,35697,20260710_101318,,,,,,ground_idle,,,,,,,,,False,0.010197660885751247,0.005229630507528782,1.0003533363342285,0.10101936757564545,-0.19259858131408691,-0.0698675811290741,0.0,0.0,82.0,23.0,0.023,0.008107414469122887,0.0015108262887224555,0.02159801498055458,0.008435913361608982,0.0026790318079292774,-0.003969274926930666,0.24507801234722137,0.5036901831626892,0.04570979252457619,0.02159801498055458,-0.004054701887071133,4.69769702249323e-06,0.00022279650147538632,3.8217010498046875,20.0,0.0,0.0,0.0,0.0,0.0,32.766,32.766,0.271,32.766,32.766,2017.93017578125,810.0147705078125,26.36979103088379,,False,
1783703604.1723657,2026-07-10T10:13:24,35707,20260710_101318,,,,,,ground_idle,,,,,,,,,False,0.009002613835036755,0.0016855512512847781,1.000834584236145,0.04407434165477753,0.1503317654132843,-0.1470397561788559,1.0,0.0,87.0,23.0,0.023,0.008107414469122887,0.0015108262887224555,0.02159801498055458,0.008435913361608982,0.0026790318079292774,-0.003969274926930666,0.24507801234722137,0.5036901831626892,0.04570979252457619,0.02159801498055458,-0.004054701887071133,4.69769702249323e-06,0.00022279650147538632,3.8217010498046875,20.0,0.0,0.0,0.0,0.0,0.0,32.766,32.766,0.271,32.766,32.766,2017.93017578125,810.0147705078125,26.36979103088379,,False,
1783703604.182522,2026-07-10T10:13:24,35717,20260710_101318,,,,,,ground_idle,,,,,,,,,False,0.009084236808121204,0.0029350570403039455,1.0027192831039429,0.39272549748420715,-0.4191133677959442,0.02865028753876686,-1.0,1.0,89.0,23.0,0.023,0.007079417817294598,-0.0018026743782684207,0.022186286747455597,0.005983172915875912,-0.004735315218567848,-0.0006510885432362556,0.28385642170906067,0.5171147584915161,0.045257192105054855,0.02159801498055458,-0.004054701887071133,4.69769702249323e-06,0.00022279650147538632,3.8217010498046875,20.0,0.0,0.0,0.0,0.0,0.0,32.766,32.766,0.271,32.766,32.766,2017.93017578125,810.0147705078125,26.36979103088379,,False,
1783703604.1927576,2026-07-10T10:13:24,35730,20260710_101318,,,,,,ground_idle,,,,,,,,,False,0.008058903738856316,0.004666594322770834,0.9994802474975586,-0.1584012806415558,0.24416868388652802,0.2542979121208191,0.0,0.0,92.0,23.0,0.023,0.004100525751709938,0.0008988773333840072,0.022180769592523575,-0.000765073171351105,0.0010282841976732016,-0.00035931775346398354,0.28385642170906067,0.5171147584915161,0.045257192105054855,0.02159801498055458,-0.004054701887071133,4.69769702249323e-06,0.00022279650147538632,3.8217010498046875,20.0,0.0,0.0,0.0,0.0,0.0,32.766,32.766,0.271,32.766,32.766,2017.93017578125,810.0147705078125,26.36979103088379,,False,
1783703604.2029989,2026-07-10T10:13:24,35737,20260710_101318,,,,,,ground_idle,,,,,,,,,False,0.009395227767527103,0.004399772733449936,0.9986349940299988,-0.07222294807434082,0.27937230467796326,0.16519145667552948,0.0,0.0,84.0,24.0,0.024,0.004100525751709938,0.0008988773333840072,0.022180769592523575,-0.000765073171351105,0.0010282841976732016,-0.00035931775346398354,0.2530117630958557,0.5522480607032776,0.0459601990878582,0.02159801498055458,-0.004054701887071133,4.69769702249323e-06,0.00022279650147538632,3.8217010498046875,20.0,0.0,0.0,0.0,0.0,0.0,32.766,32.766,0.271,32.766,32.766,2017.93017578125,810.0147705078125,26.36979103088379,,False,
1783703604.2131693,2026-07-10T10:13:24,35750,20260710_101318,,,,,,ground_idle,,,,,,,,,False,0.011402085423469543,0.005103527568280697,0.9996387362480164,-0.07614549994468689,0.5704445242881775,-0.13095270097255707,0.0,-1.0,81.0,24.0,0.024,0.006200359668582678,0.0008300403715111315,0.022968018427491188,0.00391933461651206,0.0008861197275109589,0.00323930149897933,0.2530117630958557,0.5522480607032776,0.0459601990878582,0.022934062406420708,0.0032906446140259504,2.753431999735767e-06,0.00017276777361985296,3.8217010498046875,20.0,0.0,0.0,0.0,0.0,0.0,32.766,32.766,0.271,32.766,32.766,2017.93017578125,810.0147705078125,26.36979103088379,,False,
1783703604.223354,2026-07-10T10:13:24,35757,20260710_101318,,,,,,ground_idle,,,,,,,,,False,0.010349322110414505,0.004898195620626211,0.9988877773284912,-0.07734005153179169,0.05022444576025009,-0.12850181758403778,0.0,0.0,94.0,24.0,0.024,0.006200359668582678,0.0008300403715111315,0.022968018427491188,0.00391933461651206,0.0008861197275109589,0.00323930149897933,0.253096342086792,0.5231287479400635,0.04578110948204994,0.022934062406420708,0.0032906446140259504,2.753431999735767e-06,0.00017276777361985296,3.8217010498046875,20.0,0.0,0.0,0.0,0.0,0.0,32.766,32.766,0.271,32.766,32.766,2017.93017578125,810.0147705078125,26.36979103088379,,False,
1783703604.2335443,2026-07-10T10:13:24,35767,20260710_101318,,,,,,ground_idle,,,,,,,,,False,0.008407315239310265,0.003036573762074113,0.9986746907234192,-0.19136370718479156,-0.09963258355855942,0.0665111243724823,0.0,0.0,93.0,24.0,0.024,0.006200359668582678,0.0008300403715111315,0.022968018427491188,0.00391933461651206,0.0008861197275109589,0.00323930149897933,0.253096342086792,0.5231287479400635,0.04578110948204994,0.022934062406420708,0.0032906446140259504,2.753431999735767e-06,0.00017276777361985296,3.8217010498046875,20.0,0.0,0.0,0.0,0.0,0.0,32.766,32.766,0.271,32.766,32.766,2017.93017578125,810.0147705078125,26.36979103088379,,False,
1783703604.2437663,2026-07-10T10:13:24,35777,20260710_101318,,,,,,ground_idle,,,,,,,,,False,0.008261184208095074,0.0044472794979810715,1.0000238418579102,0.019321812316775322,0.03335418552160263,-0.0906791165471077,0.0,0.0,86.0,24.0,0.024,0.006281213369220495,0.0008486356819048524,0.023031041026115417,0.004050340503454208,0.0009068831568583846,0.0030044429004192352,0.25285467505455017,0.5206319689750671,0.04436863586306572,0.022934062406420708,0.0032906446140259504,2.753431999735767e-06,0.00017276777361985296,3.8217010498046875,20.0,0.0,0.0,0.0,0.0,0.0,32.766,32.766,0.271,32.766,32.766,2017.93017578125,810.0147705078125,26.36979103088379,,False,
1783703604.2540298,2026-07-10T10:13:24,35791,20260710_101318,,,,,,ground_idle,,,,,,,,,False,0.01115215104073286,0.004369757603853941,1.0004572868347168,-0.19856423139572144,0.03922393172979355,0.29030486941337585,0.0,0.0,92.0,24.0,0.024,0.0063612135127186775,0.0008664258639328182,0.023091422393918037,0.004074269440025091,0.0008759500924497843,0.003051651641726494,0.24956941604614258,0.5205459594726562,0.04597073048353195,0.022934062406420708,0.0032906446140259504,2.753431999735767e-06,0.00017276777361985296,3.8217010498046875,20.0,0.0,0.0,0.0,0.0,0.0,32.766,32.766,0.271,32.766,32.766,2017.93017578125,810.0147705078125,26.36979103088379,,False,
1783703604.2642477,2026-07-10T10:13:24,35797,20260710_101318,,,,,,ground_idle,,,,,,,,,False,0.010329630225896835,0.004035239573568106,1.0012990236282349,0.0790582150220871,0.41600745916366577,-0.23636394739151,0.0,0.0,85.0,22.0,0.022,0.0063612135127186775,0.0008664258639328182,0.023091422393918037,0.004074269440025091,0.0008759500924497843,0.003051651641726494,0.24956941604614258,0.5205459594726562,0.04597073048353195,0.023091422393918037,0.0030106802005320787,4.697662006947212e-06,0.00022276384697761387,3.8217010498046875,20.0,0.0,0.0,0.0,0.0,0.0,0.277,32.766,0.264,32.766,32.766,2017.9849853515625,810.0100708007812,26.375926971435547,,False,
1783703604.2744627,2026-07-10T10:13:24,35811,20260710_101318,,,,,,ground_idle,,,,,,,,,False,0.00932363048195839,0.004060190171003342,1.0009918212890625,0.043674372136592865,-0.2059049755334854,0.05250518396496773,0.0,0.0,93.0,22.0,0.022,0.0064467452466487885,0.0008869465091265738,0.022638414055109024,0.004301718436181545,0.000903648673556745,0.0008643658948130906,0.25024643540382385,0.5186283588409424,0.045462388545274734,0.023091422393918037,0.0030106802005320787,4.697662006947212e-06,0.00022276384697761387,3.8217010498046875,20.0,0.0,0.0,0.0,0.0,0.0,0.277,32.766,0.264,32.766,32.766,2017.9849853515625,810.0100708007812,26.375926971435547,,False,
1783703604.2846353,2026-07-10T10:13:24,35817,20260710_101318,,,,,,ground_idle,,,,,,,,,False,0.007761660031974316,0.0052021867595613,0.998391330242157,0.07863027602434158,-0.10480916500091553,-0.03268224745988846,0.0,0.0,91.0,22.0,0.022,0.0064467452466487885,0.0008869465091265738,0.022638414055109024,0.004301718436181545,0.000903648673556745,0.0008643658948130906,0.25024643540382385,0.5186283588409424,0.045462388545274734,0.023091422393918037,0.0030106802005320787,4.697662006947212e-06,0.00022276384697761387,3.8217010498046875,20.0,0.0,0.0,0.0,0.0,0.0,0.277,32.766,0.264,32.766,32.766,2017.9849853515625,810.0100708007812,26.375926971435547,,False,
1783703604.2948792,2026-07-10T10:13:24,35831,20260710_101318,,,,,,ground_idle,,,,,,,,,False,0.008706282824277878,0.006800732109695673,0.9994709491729736,-0.05381802096962929,-0.16012151539325714,0.06991387158632278,0.0,0.0,94.0,22.0,0.022,0.006531585473567247,0.0009067092323675752,0.022654352709650993,0.004179830197244883,0.0011850780574604869,0.0007236445671878755,0.24900978803634644,0.5196610689163208,0.046156980097293854,0.023091422393918037,0.0030106802005320787,4.697662006947212e-06,0.00022276384697761387,3.8217010498046875,20.0,0.0,0.0,0.0,0.0,0.0,0.277,32.766,0.264,32.766,32.766,2017.9849853515625,810.0100708007812,26.375926971435547,,False,
1783703604.305213,2026-07-10T10:13:24,35842,20260710_101318,,,,,,ground_idle,,,,,,,,,False,0.01249234564602375,0.0037486879155039787,1.0004777908325195,-0.2664794623851776,-0.15435287356376648,0.12355954945087433,0.0,0.0,85.0,19.0,0.019,0.006531585473567247,0.0009067092323675752,0.022654352709650993,0.004179830197244883,0.0011850780574604869,0.0007236445671878755,0.24900978803634644,0.5196610689163208,0.046156980097293854,0.021140072494745255,-0.006866816896945238,2.7534260880202055e-06,0.0001727727649267763,3.8217010498046875,20.0,0.0,0.0,0.0,0.0,0.0,0.277,32.766,0.264,32.766,32.766,2017.9849853515625,810.0100708007812,26.375926971435547,,False,
1783703604.3154025,2026-07-10T10:13:24,35851,20260710_101318,,,,,,ground_idle,,,,,,,,,False,0.011615186929702759,0.004436482675373554,1.002354383468628,0.08421884477138519,0.23472389578819275,-0.10274679958820343,0.0,0.0,80.0,19.0,0.019,0.006625782232731581,0.0009391403873451054,0.021072765812277794,0.004761724267154932,0.0012239257339388132,-0.0066395895555615425,0.24764661490917206,0.5170097947120667,0.04662270471453667,0.021140072494745255,-0.006866816896945238,2.7534260880202055e-06,0.0001727727649267763,3.816422462463379,20.0,0.0,0.0,0.0,0.0,0.0,0.277,32.766,0.264,32.766,32.766,2017.9849853515625,810.0100708007812,26.375926971435547,,False,
1783703604.3255703,2026-07-10T10:13:24,35857,20260710_101318,,,,,,ground_idle,,,,,,,,,False,0.010370059870183468,0.0049766055308282375,1.0014793872833252,0.3065579831600189,0.20394310355186462,-0.2078068107366562,0.0,0.0,89.0,19.0,0.019,0.006625782232731581,0.0009391403873451054,0.021072765812277794,0.004761724267154932,0.0012239257339388132,-0.0066395895555615425,0.24764661490917206,0.5170097947120667,0.04662270471453667,0.021140072494745255,-0.006866816896945238,2.7534260880202055e-06,0.0001727727649267763,3.816422462463379,20.0,0.0,0.0,0.0,0.0,0.0,0.277,32.766,0.264,32.766,32.766,2017.9849853515625,810.0100708007812,26.375926971435547,,False,
1783703604.3357348,2026-07-10T10:13:24,35871,20260710_101318,,,,,,ground_idle,,,,,,,,,False,0.01029145810753107,0.005674473010003567,0.9995214343070984,0.09333796799182892,0.35666653513908386,0.08851134777069092,0.0,0.0,91.0,19.0,0.019,0.006723180878907442,0.0009644703241065145,0.020942887291312218,0.005031556356698275,0.0013307260815054178,-0.006457075476646423,0.25160419940948486,0.5131067037582397,0.045716602355241776,0.021140072494745255,-0.006866816896945238,2.7534260880202055e-06,0.0001727727649267763,3.816422462463379,20.0,0.0,0.0,0.0,0.0,0.0,0.277,32.766,0.264,32.766,32.766,2017.9849853515625,810.0100708007812,26.375926971435547,,False,
1783703604.3459558,2026-07-10T10:13:24,35877,20260710_101318,,,,,,ground_idle,,,,,,,,,False,0.008820666931569576,0.0044578975066542625,1.0008010864257812,0.059828486293554306,0.08998473733663559,-0.1793871968984604,0.0,0.0,99.0,19.0,0.019,0.006723180878907442,0.0009644703241065145,0.020942887291312218,0.005031556356698275,0.0013307260815054178,-0.006457075476646423,0.25160419940948486,0.5131067037582397,0.045716602355241776,0.021140072494745255,-0.006866816896945238,2.7534260880202055e-06,0.0001727727649267763,3.816422462463379,20.0,0.0,0.0,0.0,0.0,0.0,0.277,32.766,0.264,32.766,32.766,2017.9849853515625,810.0100708007812,26.375926971435547,,False,
1783703604.3561172,2026-07-10T10:13:24,35894,20260710_101318,,,,,,ground_idle,,,,,,,,,False,0.010875759646296501,0.0031913320999592543,0.9989926815032959,0.03851170092821121,-0.3953741192817688,-0.11889034509658813,0.0,0.0,83.0,19.0,0.019,0.006824869196861982,0.0009916853159666061,0.0208138357847929,0.005196809768676758,0.001301043899729848,-0.006476519163697958,0.2518148720264435,0.513267993927002,0.04679149389266968,0.0208138357847929,-0.0065284715965390205,4.697666554420721e-06,0.00022277641983237118,3.816422462463379,20.0,0.0,0.0,0.0,0.0,0.0,0.277,32.766,0.264,32.766,32.766,2017.9849853515625,810.0100708007812,26.375926971435547,,False,
1783703604.3662758,2026-07-10T10:13:24,35897,20260710_101318,,,,,,ground_idle,,,,,,,,,False,0.009354404173791409,0.0030131791718304157,1.0000550746917725,0.03935239836573601,0.09931062161922455,-0.06275582313537598,0.0,0.0,80.0,22.0,0.022,0.006824869196861982,0.0009916853159666061,0.0208138357847929,0.005196809768676758,0.001301043899729848,-0.006476519163697958,0.2518148720264435,0.513267993927002,0.04679149389266968,0.0208138357847929,-0.0065284715965390205,4.697666554420721e-06,0.00022277641983237118,3.816422462463379,20.0,0.0,0.0,0.0,0.0,0.0,0.277,0.388,0.266,32.766,32.766,2018.0068359375,810.008056640625,26.385578155517578,,False,
1783703604.3764412,2026-07-10T10:13:24,35911,20260710_101318,,,,,,ground_idle,,,,,,,,,False,0.009170499630272388,0.00657487940043211,1.0020850896835327,0.057121120393276215,-0.08203128725290298,0.15244118869304657,0.0,0.0,91.0,22.0,0.022,0.006926428526639938,0.0010142158716917038,0.021246669813990593,0.005226518027484417,0.0013311979128047824,-0.0036408607847988605,0.25154823064804077,0.511730432510376,0.04547607898712158,0.0208138357847929,-0.0065284715965390205,4.697666554420721e-06,0.00022277641983237118,3.816422462463379,20.0,0.0,0.0,0.0,0.0,0.0,0.277,0.388,0.266,32.766,32.766,2018.0068359375,810.008056640625,26.385578155517578,,False,
1783703604.3866057,2026-07-10T10:13:24,35917,20260710_101318,,,,,,ground_idle,,,,,,,,,False,0.009376722387969494,0.0061213793233036995,1.0000982284545898,-0.2791198790073395,-0.09133311361074448,0.008665777742862701,0.0,0.0,91.0,22.0,0.022,0.006926428526639938,0.0010142158716917038,0.021246669813990593,0.005226518027484417,0.0013311979128047824,-0.0036408607847988605,0.25154823064804077,0.511730432510376,0.04547607898712158,0.0208138357847929,-0.0065284715965390205,4.697666554420721e-06,0.00022277641983237118,3.816422462463379,20.0,0.0,0.0,0.0,0.0,0.0,0.277,0.388,0.266,32.766,32.766,2018.0068359375,810.008056640625,26.385578155517578,,False,
1783703604.39677,2026-07-10T10:13:24,35931,20260710_101318,,,,,,ground_idle,,,,,,,,,False,0.011716620996594429,0.003771889256313443,0.9982543587684631,0.25060731172561646,0.2296052873134613,0.2035265862941742,0.0,0.0,91.0,22.0,0.022,0.007032718509435654,0.0010437063174322248,0.021174676716327667,0.005468986928462982,0.0015321975806728005,-0.003645922988653183,0.25040173530578613,0.5102841854095459,0.04568185284733772,0.0208138357847929,-0.0065284715965390205,4.697666554420721e-06,0.00022277641983237118,3.816422462463379,20.0,0.0,0.0,0.0,0.0,0.0,0.277,0.388,0.266,32.766,32.766,2018.0068359375,810.008056640625,26.385578155517578,,False,
1783703604.4070015,2026-07-10T10:13:24,35944,20260710_101318,,,,,,ground_idle,,,,,,,,,False,0.01220486219972372,0.004769141785800457,1.0004633665084839,0.14414562284946442,-0.23932775855064392,-0.03170556575059891,0.0,0.0,89.0,23.0,0.023,0.007032718509435654,0.0010437063174322248,0.021174676716327667,0.005468986928462982,0.0015321975806728005,-0.003645922988653183,0.25040173530578613,0.5102841854095459,0.04568185284733772,0.021898187696933746,6.308806769084185e-05,2.7534449600352673e-06,0.00017278424638789147,3.8217010498046875,20.0,0.0,0.0,0.0,0.0,0.0,0.277,0.388,0.266,32.766,32.766,2018.0068359375,810.008056640625,26.385578155517578,,False,
1783703604.417159,2026-07-10T10:13:24,35955,20260710_101318,,,,,,ground_idle,,,,,,,,,False,0.009500945918262005,0.0043458095751702785,1.0021030902862549,-0.020388584583997726,-0.1206568256020546,0.13133035600185394,0.0,0.0,89.0,23.0,0.023,0.0071432096883654594,0.0010711017530411482,0.02190053090453148,0.006105374079197645,0.0015664267120882869,0.0003477007558103651,0.25074905157089233,0.5111628770828247,0.044244226068258286,0.021898187696933746,6.308806769084185e-05,2.7534449600352673e-06,0.00017278424638789147,3.8217010498046875,20.0,0.0,0.0,0.0,0.0,0.0,0.277,0.388,0.266,32.766,32.766,2018.0068359375,810.008056640625,26.385578155517578,,False,
1783703604.4273152,2026-07-10T10:13:24,35957,20260710_101318,,,,,,ground_idle,,,,,,,,,False,0.009500945918262005,0.0043458095751702785,1.0021030902862549,-0.020388584583997726,-0.1206568256020546,0.13133035600185394,0.0,0.0,89.0,23.0,0.023,0.0071432096883654594,0.0010711017530411482,0.02190053090453148,0.006105374079197645,0.0015664267120882869,0.0003477007558103651,0.25074905157089233,0.5111628770828247,0.044244226068258286,0.021898187696933746,6.308806769084185e-05,2.7534449600352673e-06,0.00017278424638789147,3.8217010498046875,20.0,0.0,0.0,0.0,0.0,0.0,0.277,0.388,0.266,32.766,32.766,2018.0068359375,810.008056640625,26.385578155517578,,False,
1783703604.4375126,2026-07-10T10:13:24,35975,20260710_101318,,,,,,ground_idle,,,,,,,,,False,0.007273632101714611,0.004382137209177017,0.9997584223747253,-0.0662798285484314,-0.10531751066446304,0.10082928836345673,0.0,0.0,90.0,23.0,0.023,0.0072677466087043285,0.001102594775147736,0.02191179245710373,0.006300223525613546,0.0016840044409036636,0.0007494001183658838,0.24831698834896088,0.5134375691413879,0.04576287418603897,0.021898187696933746,6.308806769084185e-05,2.7534449600352673e-06,0.00017278424638789147,3.8217010498046875,20.0,0.0,0.0,0.0,0.0,0.0,0.277,0.388,0.266,32.766,32.766,2018.0068359375,810.008056640625,26.385578155517578,,False,
1783703604.44768,2026-07-10T10:13:24,35977,20260710_101318,,,,,,ground_idle,,,,,,,,,False,0.007273632101714611,0.004382137209177017,0.9997584223747253,-0.0662798285484314,-0.10531751066446304,0.10082928836345673,0.0,0.0,91.0,23.0,0.023,0.0072677466087043285,0.001102594775147736,0.02191179245710373,0.006300223525613546,0.0016840044409036636,0.0007494001183658838,0.24831698834896088,0.5134375691413879,0.04576287418603897,0.021898187696933746,6.308806769084185e-05,2.7534449600352673e-06,0.00017278424638789147,3.8217010498046875,20.0,0.0,0.0,0.0,0.0,0.0,0.277,0.388,0.266,32.766,32.766,2018.0068359375,810.008056640625,26.385578155517578,,False,
1783703604.4578412,2026-07-10T10:13:24,35992,20260710_101318,,,,,,arming,,,,,,,,,False,0.01065799780189991,0.004498525522649288,0.998329222202301,-0.1360037922859192,-0.333449125289917,-0.06353087723255157,0.0,0.0,88.0,23.0,0.023,0.0073923938907682896,0.0011366476537659764,0.021926291286945343,0.006271737162023783,0.0017124904552474618,0.0006354234647005796,0.24382300674915314,0.5168657898902893,0.045738790184259415,0.021926291286945343,0.0005715382285416126,4.697697477240581e-06,0.00022278996766544878,3.8217010498046875,20.0,0.0,0.0,0.0,0.0,0.0,0.277,0.388,0.266,32.766,32.766,2018.0068359375,810.008056640625,26.385578155517578,,False,
1783703604.4680002,2026-07-10T10:13:24,36005,20260710_101318,,,,,,arming,,,,,,,,,False,0.009485275484621525,0.003597429022192955,0.9992994070053101,0.06640049815177917,-0.09374648332595825,-0.10615884512662888,0.0,0.0,89.0,24.0,0.024,0.0073923938907682896,0.0011366476537659764,0.021926291286945343,0.006271737162023783,0.0017124904552474618,0.0006354234647005796,0.24382300674915314,0.5168657898902893,0.045738790184259415,0.021926291286945343,0.0005715382285416126,4.697697477240581e-06,0.00022278996766544878,3.8217010498046875,20.0,0.0,0.0,0.0,0.0,0.0,0.279,0.398,0.264,32.766,2.838,2018.0286865234375,810.0061645507812,26.393983840942383,,False,
1783703604.4782104,2026-07-10T10:13:24,36015,20260710_101318,,,,,,arming,,,,,,,,,False,0.010609048418700695,0.004210142884403467,1.000573754310608,-0.05577605217695236,0.3858869671821594,0.24413470923900604,0.0,0.0,83.0,24.0,0.024,0.007511905860155821,0.001165841007605195,0.022921713069081306,0.006422828417271376,0.0015933923423290253,0.005300967488437891,0.24472437798976898,0.5130868554115295,0.045907072722911835,0.021926291286945343,0.0005715382285416126,4.697697477240581e-06,0.00022278996766544878,3.8217010498046875,20.0,0.0,0.0,0.0,0.0,0.0,0.279,0.398,0.264,32.766,2.838,2018.0286865234375,810.0061645507812,26.393983840942383,,False,
1783703604.488373,2026-07-10T10:13:24,36025,20260710_101318,,,,,,arming,,,,,,,,,False,0.008181760087609291,0.00607726164162159,1.000082015991211,0.15034542977809906,0.37561988830566406,0.1127670407295227,0.0,0.0,93.0,24.0,0.024,0.007511905860155821,0.001165841007605195,0.022921713069081306,0.006422828417271376,0.0015933923423290253,0.005300967488437891,0.24472437798976898,0.5130868554115295,0.045907072722911835,0.021926291286945343,0.0005715382285416126,4.697697477240581e-06,0.00022278996766544878,3.8217010498046875,20.0,0.0,0.0,0.0,0.0,0.0,0.279,0.398,0.264,32.766,2.838,2018.0286865234375,810.0061645507812,26.393983840942383,,False,
1783703604.4985464,2026-07-10T10:13:24,36035,20260710_101318,,,,,,arming,,,,,,,,,False,0.010324440896511078,0.006631957832723856,0.9992966055870056,0.186375692486763,-0.01572001352906227,0.0075973030179739,0.0,0.0,87.0,24.0,0.024,0.007642481476068497,0.00119817815721035,0.023028023540973663,0.006549971643835306,0.0017383495578542352,0.005339785013347864,0.24519020318984985,0.5082520246505737,0.04720689728856087,0.021926291286945343,0.0005715382285416126,4.697697477240581e-06,0.00022278996766544878,3.8217010498046875,20.0,0.0,0.0,0.0,0.0,0.0,0.279,0.398,0.264,32.766,2.838,2018.0286865234375,810.0061645507812,26.393983840942383,,False,
1783703604.5087073,2026-07-10T10:13:24,36044,20260710_101318,,,,,,arming,,,,,,,,,False,0.010324440896511078,0.006631957832723856,0.9992966055870056,0.186375692486763,-0.01572001352906227,0.0075973030179739,0.0,0.0,88.0,24.0,0.024,0.007642481476068497,0.00119817815721035,0.023028023540973663,0.006549971643835306,0.0017383495578542352,0.005339785013347864,0.24519020318984985,0.5082520246505737,0.04720689728856087,0.02348598651587963,0.007255386561155319,2.7534608761925483e-06,0.0001727955968817696,3.8217010498046875,20.0,0.0,7000.0,7000.0,7000.0,7000.0,0.279,0.398,0.264,32.766,2.838,2018.0286865234375,810.0061645507812,26.393983840942383,,False,
1783703604.5188677,2026-07-10T10:13:24,36055,20260710_101318,,,,,,arming,,,,,,,,,False,0.010400076396763325,0.004728890955448151,0.9993643760681152,0.1701054573059082,0.32692795991897583,0.06798670440912247,0.0,0.0,83.0,24.0,0.024,0.0077716936357319355,0.0012347339652478695,0.023558443412184715,0.006740199401974678,0.0021218338515609503,0.007168910000473261,0.24617333710193634,0.5070022344589233,0.04848921298980713,0.02348598651587963,0.007255386561155319,2.7534608761925483e-06,0.0001727955968817696,3.8217010498046875,20.0,0.0,7000.0,7000.0,7000.0,7000.0,0.279,0.398,0.264,32.766,2.838,2018.0286865234375,810.0061645507812,26.393983840942383,,False,
1783703604.5291219,2026-07-10T10:13:24,36065,20260710_101318,,,,,,arming,,,,,,,,,False,0.011176959611475468,0.005706897936761379,0.9995663166046143,0.1608263999223709,0.15782815217971802,-0.014473493210971355,0.0,1.0,82.0,24.0,0.024,0.0077716936357319355,0.0012347339652478695,0.023558443412184715,0.006740199401974678,0.0021218338515609503,0.007168910000473261,0.24617333710193634,0.5070022344589233,0.04848921298980713,0.02348598651587963,0.007255386561155319,2.7534608761925483e-06,0.0001727955968817696,3.8217010498046875,20.0,0.0,7000.0,7000.0,7000.0,7000.0,0.279,0.398,0.264,32.766,2.838,2018.0286865234375,810.0061645507812,26.393983840942383,,False,
1783703604.5392945,2026-07-10T10:13:24,36075,20260710_101318,,,,,,arming,,,,,,,,,False,0.011261656880378723,0.006529597099870443,1.0003247261047363,0.21629929542541504,-0.11007359623908997,0.2672899067401886,0.0,-1.0,86.0,24.0,0.024,0.006489551160484552,0.0007368490332737565,0.023704133927822113,0.004129794426262379,0.0012081611203029752,0.007069565821439028,0.25224441289901733,0.5181813836097717,0.04909125342965126,0.02348598651587963,0.007255386561155319,2.7534608761925483e-06,0.0001727955968817696,3.8217010498046875,20.0,0.0,7000.0,7000.0,7000.0,7000.0,0.279,0.398,0.264,32.766,2.838,2018.0286865234375,810.0061645507812,26.393983840942383,,False,
1783703604.5494874,2026-07-10T10:13:24,36087,20260710_101318,,,,,,arming,,,,,,,,,False,0.010963710956275463,0.003983732312917709,0.9995877146720886,0.02884829230606556,0.30736371874809265,-0.12637512385845184,0.0,0.0,87.0,24.0,0.024,0.006489551160484552,0.0007368490332737565,0.023704133927822113,0.004129794426262379,0.0012081611203029752,0.007069565821439028,0.25224441289901733,0.5181813836097717,0.04909125342965126,0.02348598651587963,0.007255386561155319,2.7534608761925483e-06,0.0001727955968817696,3.8217010498046875,20.0,0.0,7000.0,7000.0,7000.0,7000.0,0.279,0.398,0.264,32.766,2.838,2018.0286865234375,810.0061645507812,26.393983840942383,,False,
1783703604.5596666,2026-07-10T10:13:24,36095,20260710_101318,,,,,,arming,,,,,,,,,False,0.009248154237866402,0.004801690112799406,1.0001823902130127,0.07032474875450134,0.3152267634868622,-0.19321094453334808,0.0,0.0,87.0,24.0,0.024,0.00657630292698741,0.0007641431875526905,0.023846078664064407,0.004553774371743202,0.001429037656635046,0.007090886123478413,0.25391632318496704,0.5173648595809937,0.051290784031152725,0.023846078664064407,0.007043096702545881,4.697683380072704e-06,0.00022276703384704888,3.8217010498046875,20.0,0.0,7000.0,7000.0,7000.0,7000.0,0.277,0.387,0.263,32.766,32.766,2017.968505859375,810.0114135742188,26.402095794677734,,False,
1783703604.5698893,2026-07-10T10:13:24,36107,20260710_101318,,,,,,arming,,,,,,,,,False,0.00890263170003891,0.004077565856277943,1.0009891986846924,-0.1643940806388855,0.043022092431783676,0.030769485980272293,0.0,0.0,88.0,24.0,0.024,0.00657630292698741,0.0007641431875526905,0.023846078664064407,0.004553774371743202,0.001429037656635046,0.007090886123478413,0.25391632318496704,0.5173648595809937,0.051290784031152725,0.023846078664064407,0.007043096702545881,4.697683380072704e-06,0.00022276703384704888,3.8217010498046875,20.0,0.0,7000.0,7000.0,7000.0,7000.0,0.277,0.387,0.263,32.766,32.766,2017.968505859375,810.0114135742188,26.402095794677734,,False,
1783703604.5800884,2026-07-10T10:13:24,36117,20260710_101318,,,,,,arming,,,,,,,,,False,0.008795163594186306,0.0014943229034543037,1.002562165260315,0.015745528042316437,-0.0519818477332592,-0.06327896565198898,0.0,0.0,90.0,24.0,0.024,0.0066675469279289246,0.0007930190768092871,0.02406189776957035,0.0046028858050704,0.0014518586685881019,0.00755304703488946,0.2540989816188812,0.5123801231384277,0.05027460679411888,0.023846078664064407,0.007043096702545881,4.697683380072704e-06,0.00022276703384704888,3.8217010498046875,20.0,0.0,7000.0,7000.0,7000.0,7000.0,0.277,0.387,0.263,32.766,32.766,2017.968505859375,810.0114135742188,26.402095794677734,,False,
1783703604.5902646,2026-07-10T10:13:24,36127,20260710_101318,,,,,,arming,,,,,,,,,False,0.00967214722186327,0.004549069330096245,0.9999171495437622,-0.11582443863153458,-0.1328415870666504,-0.052876200526952744,0.0,0.0,83.0,24.0,0.024,0.0066675469279289246,0.0007930190768092871,0.02406189776957035,0.0046028858050704,0.0014518586685881019,0.00755304703488946,0.2540989816188812,0.5123801231384277,0.05027460679411888,0.023846078664064407,0.007043096702545881,4.697683380072704e-06,0.00022276703384704888,3.8217010498046875,20.0,0.0,7000.0,7000.0,7000.0,7000.0,0.277,0.387,0.263,32.766,32.766,2017.968505859375,810.0114135742188,26.402095794677734,,False,
1783703604.6004593,2026-07-10T10:13:24,36137,20260710_101318,,,,,,arming,,,,,,,,,False,0.010251559317111969,0.004449785687029362,1.0017056465148926,0.199477881193161,-0.41858038306236267,-0.08824943751096725,0.0,0.0,89.0,21.0,0.021,0.006759714800864458,0.0008185689803212881,0.02421664260327816,0.004610465839505196,0.0011759854387491941,0.007828008383512497,0.2532740831375122,0.5122226476669312,0.05047491937875748,0.023846078664064407,0.007043096702545881,4.697683380072704e-06,0.00022276703384704888,3.8217010498046875,20.0,0.0,7000.0,7000.0,7000.0,7000.0,0.277,0.387,0.263,32.766,32.766,2017.968505859375,810.0114135742188,26.402095794677734,,False,
1783703604.6106246,2026-07-10T10:13:24,36147,20260710_101318,,,,,,arming,,,,,,,,,False,0.009534971788525581,0.004249025136232376,1.0003061294555664,0.07337581366300583,-0.14262565970420837,-0.010754704475402832,0.0,0.0,90.0,21.0,0.021,0.006759714800864458,0.0008185689803212881,0.02421664260327816,0.004610465839505196,0.0011759854387491941,0.007828008383512497,0.2532740831375122,0.5122226476669312,0.05047491937875748,0.02295600064098835,0.0012076336424797773,2.7534424589248374e-06,0.0001727750786812976,3.816422462463379,20.0,0.0,7000.0,7000.0,7000.0,7000.0,0.277,0.387,0.263,32.766,32.766,2017.968505859375,810.0114135742188,26.402095794677734,,False,
1783703604.620792,2026-07-10T10:13:24,36157,20260710_101318,,,,,,arming,,,,,,,,,False,0.01111211534589529,0.0063758958131074905,1.0018168687820435,0.3939032256603241,-0.2219858020544052,-0.009064750745892525,0.0,0.0,85.0,21.0,0.021,0.00686307530850172,0.0008451814646832645,0.022968869656324387,0.0048372079618275166,0.0011805869871750474,0.0013178902445361018,0.25479942560195923,0.5125447511672974,0.049712713807821274,0.02295600064098835,0.0012076336424797773,2.7534424589248374e-06,0.0001727750786812976,3.816422462463379,20.0,0.0,7000.0,7000.0,7000.0,7000.0,0.277,0.387,0.263,32.766,32.766,2017.968505859375,810.0114135742188,26.402095794677734,,False,
1783703604.6309626,2026-07-10T10:13:24,36167,20260710_101318,,,,,,arming,,,,,,,,,False,0.009507279843091965,0.005872137378901243,1.0028741359710693,0.09195717424154282,0.08294889330863953,-0.19318228960037231,0.0,0.0,86.0,21.0,0.021,0.00686307530850172,0.0008451814646832645,0.022968869656324387,0.0048372079618275166,0.0011805869871750474,0.0013178902445361018,0.25479942560195923,0.5125447511672974,0.049712713807821274,0.02295600064098835,0.0012076336424797773,2.7534424589248374e-06,0.0001727750786812976,3.816422462463379,20.0,0.0,7000.0,7000.0,7000.0,7000.0,0.277,0.387,0.263,32.766,32.766,2017.968505859375,810.0114135742188,26.402095794677734,,False,
1783703604.641173,2026-07-10T10:13:24,36177,20260710_101318,,,,,,arming,,,,,,,,,False,0.011558751575648785,0.0065289875492453575,1.0007898807525635,-0.017332423478364944,0.032263945788145065,-0.7059294581413269,0.0,0.0,89.0,21.0,0.021,0.006962848361581564,0.000871947908308357,0.02299896813929081,0.005075762048363686,0.0014934184728190303,0.001736285863444209,0.2560455799102783,0.5109962224960327,0.04896889626979828,0.02295600064098835,0.0012076336424797773,2.7534424589248374e-06,0.0001727750786812976,3.816422462463379,20.0,0.0,7000.0,7000.0,7000.0,7000.0,0.277,0.387,0.263,32.766,32.766,2017.968505859375,810.0114135742188,26.402095794677734,,False,
1783703604.6513298,2026-07-10T10:13:24,36187,20260710_101318,,,,,,arming,,,,,,,,,False,0.010179534554481506,0.003062876407057047,1.0012924671173096,-0.084387868642807,0.22826187312602997,1.9358099699020386,0.0,0.0,87.0,21.0,0.021,0.006962848361581564,0.000871947908308357,0.02299896813929081,0.005075762048363686,0.0014934184728190303,0.001736285863444209,0.2560455799102783,0.5109962224960327,0.04896889626979828,0.02295600064098835,0.0012076336424797773,2.7534424589248374e-06,0.0001727750786812976,3.816422462463379,20.0,0.0,7000.0,7000.0,7000.0,7000.0,0.277,0.387,0.263,32.766,32.766,2017.968505859375,810.0114135742188,26.402095794677734,,False,
1783703604.661485,2026-07-10T10:13:24,36197,20260710_101318,,,,,,arming,,,,,,,,,False,0.012653225101530552,0.0067248218692839146,1.0001552104949951,-0.13261303305625916,-0.3912234306335449,-0.608531653881073,0.0,0.0,86.0,24.0,0.024,0.007067560683935881,0.0009047636995092034,0.023036250844597816,0.005374252330511808,0.0016986860428005457,0.0019457663875073195,0.25564202666282654,0.5063818097114563,0.05406991392374039,0.023036250844597816,0.001890607294626534,4.697688837040914e-06,0.00022277860261965543,3.800586462020874,20.0,0.0,7000.0,7000.0,7000.0,7000.0,0.273,32.766,0.269,32.766,32.766,2018.06689453125,810.0027465820312,26.407793045043945,,False,
1783703604.6716435,2026-07-10T10:13:24,36207,20260710_101318,,,,,,arming,,,,,,,,,False,0.008542368188500404,0.0035370292607694864,0.9993141889572144,0.3397701382637024,-0.05568709969520569,-1.0484731197357178,0.0,0.0,86.0,24.0,0.024,0.007067560683935881,0.0009047636995092034,0.023036250844597816,0.005374252330511808,0.0016986860428005457,0.0019457663875073195,0.25564202666282654,0.5063818097114563,0.05406991392374039,0.023036250844597816,0.001890607294626534,4.697688837040914e-06,0.00022277860261965543,3.800586462020874,20.0,0.0,7000.0,7000.0,7000.0,7000.0,0.273,32.766,0.269,32.766,32.766,2018.06689453125,810.0027465820312,26.407793045043945,,False,
1783703604.6820385,2026-07-10T10:13:24,36217,20260710_101318,,,,,,arming,,,,,,,,,False,0.01347289141267538,0.007043220568448305,1.0016634464263916,-0.303040474653244,0.1435934156179428,0.6622390151023865,0.0,0.0,88.0,24.0,0.024,0.00717648770660162,0.0009393716463819146,0.023531869053840637,0.005753315985202789,0.0018062210874632,0.004198229406028986,0.25581496953964233,0.5015785694122314,0.04686117172241211,0.023036250844597816,0.001890607294626534,4.697688837040914e-06,0.00022277860261965543,3.800586462020874,20.0,0.0,7000.0,7000.0,7000.0,7000.0,0.273,32.766,0.269,32.766,32.766,2018.06689453125,810.0027465820312,26.407793045043945,,False,
1783703604.6922045,2026-07-10T10:13:24,36230,20260710_101318,,,,,,arming,,,,,,,,,False,0.006774926092475653,0.003790941322222352,1.000569462776184,-0.12195146083831787,-0.5603089928627014,0.48333460092544556,0.0,0.0,83.0,24.0,0.024,0.007295995485037565,0.0009788911556825042,0.023616641759872437,0.0060918694362044334,0.0020785187371075153,0.004246761091053486,0.25581496953964233,0.5015785694122314,0.04686117172241211,0.023036250844597816,0.001890607294626534,4.697688837040914e-06,0.00022277860261965543,3.800586462020874,20.0,0.0,7000.0,7000.0,7000.0,7000.0,0.273,32.766,0.269,32.766,32.766,2018.06689453125,810.0027465820312,26.407793045043945,,False,
1783703604.7023635,2026-07-10T10:13:24,36237,20260710_101318,,,,,,arming,,,,,,,,,False,0.009583599865436554,0.0060821957886219025,0.996928334236145,0.4179399907588959,-1.2473552227020264,-0.3288445770740509,0.0,0.0,91.0,22.0,0.022,0.007295995485037565,0.0009788911556825042,0.023616641759872437,0.0060918694362044334,0.0020785187371075153,0.004246761091053486,0.2536737322807312,0.5015010237693787,0.051375385373830795,0.023036250844597816,0.001890607294626534,4.697688837040914e-06,0.00022277860261965543,3.800586462020874,20.0,0.0,7000.0,7000.0,7000.0,7000.0,0.273,32.766,0.269,32.766,32.766,2018.06689453125,810.0027465820312,26.407793045043945,,False,
1783703604.7125258,2026-07-10T10:13:24,36247,20260710_101318,,,,,,arming,,,,,,,,,False,0.007786631118506193,0.00828405749052763,1.0010123252868652,0.24178321659564972,0.45995423197746277,-0.4144236743450165,0.0,0.0,86.0,22.0,0.022,0.007295995485037565,0.0009788911556825042,0.023616641759872437,0.0060918694362044334,0.0020785187371075153,0.004246761091053486,0.2536737322807312,0.5015010237693787,0.051375385373830795,0.022985154762864113,0.0006735065835528076,2.753449507508776e-06,0.00017278730229008943,3.7953078746795654,20.0,0.0,7000.0,7000.0,7000.0,7000.0,0.273,32.766,0.269,32.766,32.766,2018.06689453125,810.0027465820312,26.407793045043945,,False,
1783703604.7226825,2026-07-10T10:13:24,36257,20260710_101318,,,,,,arming,,,,,,,,,False,0.011592039838433266,0.004518883302807808,1.0026869773864746,-0.2489703893661499,-0.3479749262332916,0.49126386642456055,0.0,0.0,90.0,22.0,0.022,0.007423049304634333,0.00102497439365834,0.022992921993136406,0.0061041805893182755,0.0024093876127153635,0.0008164128521457314,0.2548540532588959,0.5131291747093201,0.04650922492146492,0.022985154762864113,0.0006735065835528076,2.753449507508776e-06,0.00017278730229008943,3.7953078746795654,20.0,0.0,7000.0,7000.0,7000.0,7000.0,0.273,32.766,0.269,32.766,32.766,2018.06689453125,810.0027465820312,26.407793045043945,,False,
1783703604.7330744,2026-07-10T10:13:24,36270,20260710_101318,,,,,,arming,,,,,,,,,False,0.011837405152618885,0.00599067285656929,1.0016252994537354,0.22996020317077637,0.3961031138896942,-0.12551304697990417,0.0,0.0,84.0,22.0,0.022,0.007548150606453419,0.001074938103556633,0.02301071025431156,0.0065100183710455894,0.002577630802989006,0.0010599541710689664,0.2548540532588959,0.5131291747093201,0.04650922492146492,0.022985154762864113,0.0006735065835528076,2.753449507508776e-06,0.00017278730229008943,3.7953078746795654,20.0,0.0,7000.0,7000.0,7000.0,7000.0,0.273,32.766,0.269,32.766,32.766,2018.06689453125,810.0027465820312,26.407793045043945,,False,
1783703604.7433617,2026-07-10T10:13:24,36277,20260710_101318,,,,,,arming,,,,,,,,,False,0.007262405473738909,0.0024995014537125826,1.0005509853363037,0.021175963804125786,-0.14634612202644348,-0.2393527626991272,0.0,0.0,88.0,22.0,0.022,0.007548150606453419,0.001074938103556633,0.02301071025431156,0.0065100183710455894,0.002577630802989006,0.0010599541710689664,0.2550186812877655,0.5091162919998169,0.042798254638910294,0.022985154762864113,0.0006735065835528076,2.753449507508776e-06,0.00017278730229008943,3.7953078746795654,20.0,0.0,7000.0,7000.0,7000.0,7000.0,0.273,32.766,0.269,32.766,32.766,2018.06689453125,810.0027465820312,26.407793045043945,,False,
1783703604.7535367,2026-07-10T10:13:24,36290,20260710_101318,,,,,,arming,,,,,,,,,False,0.015656618401408195,0.013692622072994709,1.000536561012268,0.28227561712265015,-1.0699900388717651,-0.570862889289856,0.0,0.0,81.0,22.0,0.022,7.714132152614184e-06,5.8097684814129025e-06,-2.894303179346025e-07,0.0013757903361693025,0.0010918566258624196,-3.488961738185026e-05,0.2550186812877655,0.5091162919998169,0.042798254638910294,0.022985154762864113,0.0006735065835528076,2.753449507508776e-06,0.00017278730229008943,3.7953078746795654,20.0,0.0,7000.0,7000.0,7000.0,7000.0,0.273,32.766,0.269,32.766,32.766,2018.06689453125,810.0027465820312,26.407793045043945,,False,
1783703604.7636871,2026-07-10T10:13:24,36297,20260710_101318,,,,,,arming,,,,,,,,,False,0.007695842068642378,0.0002890271716751158,1.0026363134384155,0.22853133082389832,0.13195152580738068,1.0946922302246094,0.0,0.0,85.0,24.0,0.024,7.714132152614184e-06,5.8097684814129025e-06,-2.894303179346025e-07,0.0013757903361693025,0.0010918566258624196,-3.488961738185026e-05,0.00033265494857914746,0.004315802827477455,-0.0014305436052381992,-2.894303179346025e-07,-3.499965532682836e-05,1.0,0.00011600000289035961,3.800586462020874,20.0,0.0,7000.0,7000.0,7000.0,7000.0,0.277,32.766,0.262,32.766,2.824,2017.968505859375,810.0111694335938,26.418359756469727,,False,
1783703604.7738867,2026-07-10T10:13:24,36311,20260710_101318,,,,,,arming,,,,,,,,,False,0.006057273596525192,0.00761634623631835,0.9971649050712585,0.023731661960482597,-0.009754495695233345,-0.13039706647396088,0.0,0.0,85.0,24.0,0.024,5.448852607514709e-05,3.422659574425779e-05,0.024000175297260284,0.0030644265934824944,0.0018143606139346957,5.6578315707156435e-05,0.003592679277062416,0.005302032921463251,-0.00018101085152011365,-2.894303179346025e-07,-3.499965532682836e-05,1.0,0.00011600000289035961,3.800586462020874,20.0,0.0,7000.0,7000.0,7000.0,7000.0,0.277,32.766,0.262,32.766,2.824,2017.968505859375,810.0111694335938,26.418359756469727,,False,
1783703604.78405,2026-07-10T10:13:24,36317,20260710_101318,,,,,,arming,,,,,,,,,False,0.01580590009689331,0.006772874388843775,1.0017033815383911,-0.39906325936317444,0.26618239283561707,-0.5127137899398804,0.0,0.0,87.0,24.0,0.024,5.448852607514709e-05,3.422659574425779e-05,0.024000175297260284,0.0030644265934824944,0.0018143606139346957,5.6578315707156435e-05,0.003592679277062416,0.005302032921463251,-0.00018101085152011365,-2.894303179346025e-07,-3.499965532682836e-05,1.0,0.00011600000289035961,3.800586462020874,20.0,0.0,7000.0,7000.0,7000.0,7000.0,0.277,32.766,0.262,32.766,2.824,2017.968505859375,810.0111694335938,26.418359756469727,,False,
1783703604.7942092,2026-07-10T10:13:24,36331,20260710_101318,,,,,,arming,,,,,,,,,False,0.004105738829821348,-0.001675056992098689,1.0044901371002197,0.6719340085983276,0.26986998319625854,-0.44710609316825867,0.0,0.0,88.0,24.0,0.024,0.0001409594842698425,8.482018893118948e-05,0.024004168808460236,0.005170483607798815,0.0026314675342291594,0.0005401726230047643,0.002209323225542903,0.0029567035380750895,-0.00011067825835198164,-2.894303179346025e-07,-3.499965532682836e-05,1.0,0.00011600000289035961,3.800586462020874,20.0,0.0,7000.0,7000.0,7000.0,7000.0,0.277,32.766,0.262,32.766,2.824,2017.968505859375,810.0111694335938,26.418359756469727,,False,
1783703604.8043556,2026-07-10T10:13:24,36342,20260710_101318,,,,,,arming,,,,,,,,,False,0.018150631338357925,0.017261503264307976,0.9967232942581177,-0.6241124272346497,-0.28562936186790466,-0.24985183775424957,0.0,0.0,90.0,23.0,0.023,0.0001409594842698425,8.482018893118948e-05,0.024004168808460236,0.005170483607798815,0.0026314675342291594,0.0005401726230047643,0.002209323225542903,0.0029567035380750895,-0.00011067825835198164,0.02349420264363289,-4.9191381549462676e-05,3.2499472126801265e-06,0.00016367419448215514,3.800586462020874,20.0,0.0,7000.0,7000.0,7000.0,7000.0,0.277,32.766,0.262,32.766,2.824,2017.968505859375,810.0111694335938,26.418359756469727,,False,
1783703604.814514,2026-07-10T10:13:24,36351,20260710_101318,,,,,,arming,,,,,,,,,False,0.0052634975872933865,-0.006916651502251625,1.0033329725265503,0.14804530143737793,0.5570960640907288,0.7542019486427307,0.0,0.0,90.0,23.0,0.023,0.00026906098355539143,0.00015630210691597313,0.02349460870027542,0.007452690973877907,0.0037742124404758215,0.0001302803138969466,0.0002968813350889832,-0.00028564821695908904,0.0015237159095704556,0.02349420264363289,-4.9191381549462676e-05,3.2499472126801265e-06,0.00016367419448215514,3.8058650493621826,20.0,0.0,7000.0,7000.0,7000.0,7000.0,0.277,32.766,0.262,32.766,2.824,2017.968505859375,810.0111694335938,26.418359756469727,,False,
1783703604.82471,2026-07-10T10:13:24,36357,20260710_101318,,,,,,arming,,,,,,,,,False,0.00603386340662837,0.011143515817821026,0.9972350001335144,-0.18359854817390442,-0.4635069966316223,0.3634782135486603,0.0,0.0,84.0,23.0,0.023,0.00026906098355539143,0.00015630210691597313,0.02349460870027542,0.007452690973877907,0.0037742124404758215,0.0001302803138969466,0.0002968813350889832,-0.00028564821695908904,0.0015237159095704556,0.02349420264363289,-4.9191381549462676e-05,3.2499472126801265e-06,0.00016367419448215514,3.8058650493621826,20.0,0.0,7000.0,7000.0,7000.0,7000.0,0.277,32.766,0.262,32.766,2.824,2017.968505859375,810.0111694335938,26.418359756469727,,False,
1783703604.8349438,2026-07-10T10:13:24,36371,20260710_101318,,,,,,arming,,,,,,,,,False,0.012606482021510601,-0.0024191560223698616,1.000623106956482,-0.1692875772714615,0.14132866263389587,-0.25197482109069824,0.0,0.0,84.0,23.0,0.023,0.00043037993600592017,0.00024058866256382316,0.023493660613894463,0.009253401309251785,0.004688631743192673,-0.00024493440287187696,-0.002407488413155079,0.0025348623748868704,-0.0008888074080459774,0.02349420264363289,-4.9191381549462676e-05,3.2499472126801265e-06,0.00016367419448215514,3.8058650493621826,20.0,0.0,7000.0,7000.0,7000.0,7000.0,0.277,32.766,0.262,32.766,2.824,2017.968505859375,810.0111694335938,26.418359756469727,,False,
1783703604.8451028,2026-07-10T10:13:24,36377,20260710_101318,,,,,,arming,,,,,,,,,False,0.0013812672113999724,0.002534903585910797,0.999794065952301,0.5006332993507385,0.2584627568721771,0.20663690567016602,0.0,0.0,89.0,23.0,0.023,0.00043037993600592017,0.00024058866256382316,0.023493660613894463,0.009253401309251785,0.004688631743192673,-0.00024493440287187696,-0.002407488413155079,0.0025348623748868704,-0.0008888074080459774,0.02349420264363289,-4.9191381549462676e-05,3.2499472126801265e-06,0.00016367419448215514,3.8058650493621826,20.0,0.0,7000.0,7000.0,7000.0,7000.0,0.277,32.766,0.262,32.766,2.824,2017.968505859375,810.0111694335938,26.418359756469727,,False,
1783703604.8552737,2026-07-10T10:13:24,36392,20260710_101318,,,,,,arming,,,,,,,,,False,0.02393074706196785,0.011199569329619408,0.9963606595993042,-0.7077943682670593,-0.2235473245382309,-0.6842012405395508,0.0,1.0,81.0,23.0,0.023,0.0003345660516060889,0.0003070766688324511,0.023495573550462723,0.00755638862028718,0.005203775595873594,-0.0005744461086578667,0.0065170773304998875,0.09491467475891113,0.0002202462055720389,0.023495573550462723,-0.000587556220125407,4.127824468014296e-06,0.00021367307635955513,3.8058650493621826,20.0,0.0,7000.0,7000.0,7000.0,7000.0,0.277,32.766,0.262,32.766,2.824,2017.968505859375,810.0111694335938,26.418359756469727,,False,
1783703604.8654838,2026-07-10T10:13:24,36397,20260710_101318,,,,,,arming,,,,,,,,,False,0.0027426464948803186,-0.008517833426594734,1.0047653913497925,0.7697717547416687,0.4984651803970337,0.1355171799659729,0.0,0.0,87.0,23.0,0.023,0.0003345660516060889,0.0003070766688324511,0.023495573550462723,0.00755638862028718,0.005203775595873594,-0.0005744461086578667,0.0065170773304998875,0.09491467475891113,0.0002202462055720389,0.023495573550462723,-0.000587556220125407,4.127824468014296e-06,0.00021367307635955513,3.8111438751220703,20.0,0.0,7000.0,7000.0,7000.0,7000.0,0.279,0.384,0.266,32.766,2.851,2017.9029541015625,810.0171508789062,26.429475784301758,,False,
1783703604.8756592,2026-07-10T10:13:24,36411,20260710_101318,,,,,,arming,,,,,,,,,False,0.020656663924455643,0.019357789307832718,0.9971745610237122,-0.7415369153022766,-0.5750933885574341,-0.16928240656852722,0.0,0.0,86.0,23.0,0.023,0.0005015224451199174,0.0004074337484780699,0.023279249668121338,0.00938630010932684,0.005840941332280636,-0.0009607746032997966,0.007074315566569567,0.09456932544708252,0.0034327751491218805,0.023495573550462723,-0.000587556220125407,4.127824468014296e-06,0.00021367307635955513,3.8111438751220703,20.0,0.0,7000.0,7000.0,7000.0,7000.0,0.279,0.384,0.266,32.766,2.851,2017.9029541015625,810.0171508789062,26.429475784301758,,False,
1783703604.8858883,2026-07-10T10:13:24,36417,20260710_101318,,,,,,arming,,,,,,,,,False,0.004427526146173477,-0.010364554822444916,1.0063776969909668,0.13640376925468445,0.7196627259254456,0.4446570575237274,0.0,-1.0,88.0,23.0,0.023,0.0005015224451199174,0.0004074337484780699,0.023279249668121338,0.00938630010932684,0.005840941332280636,-0.0009607746032997966,0.007074315566569567,0.09456932544708252,0.0034327751491218805,0.023495573550462723,-0.000587556220125407,4.127824468014296e-06,0.00021367307635955513,3.8111438751220703,20.0,0.0,7000.0,7000.0,7000.0,7000.0,0.279,0.384,0.266,32.766,2.851,2017.9029541015625,810.0171508789062,26.429475784301758,,False,
1783703604.8960967,2026-07-10T10:13:24,36431,20260710_101318,,,,,,arming,,,,,,,,,False,0.00969566311687231,0.013861187733709812,0.9973109364509583,-0.07788968086242676,-0.051634471863508224,0.15412139892578125,0.0,0.0,85.0,23.0,0.023,0.0008816177723929286,0.0004414698341861367,0.023265022784471512,0.01247685868293047,0.005352049600332975,-0.0005062923301011324,0.029108157381415367,0.04681028053164482,0.006034145597368479,0.023495573550462723,-0.000587556220125407,4.127824468014296e-06,0.00021367307635955513,3.8111438751220703,20.0,0.0,7000.0,7000.0,7000.0,7000.0,0.279,0.384,0.266,32.766,2.851,2017.9029541015625,810.0171508789062,26.429475784301758,,False,
1783703604.9062796,2026-07-10T10:13:24,36442,20260710_101318,,,,,,arming,,,,,,,,,False,0.013337453827261925,0.0014376803301274776,1.004050612449646,-0.5664150714874268,0.20792214572429657,0.004535271320492029,0.0,0.0,93.0,27.0,0.027,0.0008816177723929286,0.0004414698341861367,0.023265022784471512,0.01247685868293047,0.005352049600332975,-0.0005062923301011324,0.029108157381415367,0.04681028053164482,0.006034145597368479,0.024660056456923485,0.005982964765280485,2.475612518537673e-06,0.00021637386817019433,3.8111438751220703,20.0,0.0,7000.0,7000.0,7000.0,7000.0,0.279,0.384,0.266,32.766,2.851,2017.9029541015625,810.0171508789062,26.429475784301758,,False,
1783703604.916495,2026-07-10T10:13:24,36451,20260710_101318,,,,,,arming,,,,,,,,,False,0.0027975330594927073,0.007856311276555061,1.0006964206695557,0.9051486849784851,0.5543235540390015,0.18881936371326447,0.0,0.0,93.0,27.0,0.027,0.0011570702772587538,0.0005619298899546266,0.024721795693039894,0.014252027496695518,0.0061897034756839275,0.006351448595523834,0.03057054430246353,0.041762907058000565,0.00523466058075428,0.024660056456923485,0.005982964765280485,2.475612518537673e-06,0.00021637386817019433,3.8058650493621826,20.0,0.0,7000.0,7000.0,7000.0,7000.0,0.279,0.384,0.266,32.766,2.851,2017.9029541015625,810.0171508789062,26.429475784301758,,False,
1783703604.9266555,2026-07-10T10:13:24,36457,20260710_101318,,,,,,arming,,,,,,,,,False,0.02038249745965004,0.011481347493827343,1.001193881034851,-1.1014397144317627,-0.26856550574302673,-0.24619221687316895,0.0,0.0,91.0,27.0,0.027,0.0011570702772587538,0.0005619298899546266,0.024721795693039894,0.014252027496695518,0.0061897034756839275,0.006351448595523834,0.03057054430246353,0.041762907058000565,0.00523466058075428,0.024660056456923485,0.005982964765280485,2.475612518537673e-06,0.00021637386817019433,3.8058650493621826,20.0,0.0,7000.0,7000.0,7000.0,7000.0,0.279,0.384,0.266,32.766,2.851,2017.9029541015625,810.0171508789062,26.429475784301758,,False,
1783703604.9368181,2026-07-10T10:13:24,36471,20260710_101318,,,,,,arming,,,,,,,,,False,0.0023903558030724525,-0.008609408512711525,1.0026884078979492,1.3498834371566772,0.5548697710037231,0.46927040815353394,1.0,0.0,86.0,27.0,0.027,0.0011737343156710267,8.920828258851543e-05,0.024858035147190094,0.013826154172420502,0.0011449101148173213,0.006709226872771978,0.15226581692695618,0.09926164150238037,0.005996976979076862,0.024660056456923485,0.005982964765280485,2.475612518537673e-06,0.00021637386817019433,3.8058650493621826,20.0,0.0,7000.0,7000.0,7000.0,7000.0,0.279,0.384,0.266,32.766,2.851,2017.9029541015625,810.0171508789062,26.429475784301758,,False,
1783703604.947009,2026-07-10T10:13:24,36477,20260710_101318,,,,,,arming,,,,,,,,,False,0.01986835151910782,0.019152818247675896,0.9957809448242188,-1.112392544746399,-0.12017282843589783,-0.0711815357208252,-1.0,0.0,87.0,27.0,0.027,0.0011737343156710267,8.920828258851543e-05,0.024858035147190094,0.013826154172420502,0.0011449101148173213,0.006709226872771978,0.15226581692695618,0.09926164150238037,0.005996976979076862,0.024660056456923485,0.005982964765280485,2.475612518537673e-06,0.00021637386817019433,3.8058650493621826,20.0,0.0,7000.0,7000.0,7000.0,7000.0,0.279,0.384,0.266,32.766,2.851,2017.9029541015625,810.0171508789062,26.429475784301758,,False,
1783703604.9571698,2026-07-10T10:13:24,36494,20260710_101318,,,,,,arming,,,,,,,,,False,0.0036046940367668867,-0.011807521805167198,1.0072275400161743,0.5031956434249878,0.5154790282249451,0.43559524416923523,0.0,0.0,86.0,27.0,0.027,0.0011813704622909427,0.0005644922493956983,0.024991853162646294,0.013423443771898746,0.005307280924171209,0.006743593607097864,0.07227502018213272,0.14787361025810242,0.00697545800358057,0.024991853162646294,0.0067022405564785,4.354526481620269e-06,0.0002663673076312989,3.8111438751220703,20.0,0.0,7000.0,7000.0,7000.0,7000.0,0.277,32.766,0.267,32.766,32.766,2017.9029541015625,810.0171508789062,26.429475784301758,,False,
1783703604.9673297,2026-07-10T10:13:24,36505,20260710_101318,,,,,,arming,,,,,,,,,False,0.003264575731009245,-0.007816859520971775,1.004307746887207,-0.17620477080345154,0.18809333443641663,0.09767479449510574,0.0,1.0,93.0,23.0,0.023,0.0011813704622909427,0.0005644922493956983,0.024991853162646294,0.013423443771898746,0.005307280924171209,0.006743593607097864,0.07227502018213272,0.14787361025810242,0.00697545800358057,0.024991853162646294,0.0067022405564785,4.354526481620269e-06,0.0002663673076312989,3.8111438751220703,20.0,0.0,7000.0,7000.0,7000.0,7000.0,0.277,32.766,0.267,32.766,32.766,2018.0943603515625,810.0004272460938,26.432186126708984,,False,
1783703604.9774978,2026-07-10T10:13:24,36515,20260710_101318,,,,,,arming,,,,,,,,,False,0.009355471469461918,0.013217435218393803,0.9999839663505554,0.3160583972930908,0.1395018994808197,0.07395105063915253,0.0,0.0,88.0,23.0,0.023,0.0007237739628180861,0.0005559870623983443,0.02422252669930458,0.00911693088710308,0.0048737069591879845,0.0022566490806639194,0.08971934020519257,0.2628326714038849,0.0061406237073242664,0.024991853162646294,0.0067022405564785,4.354526481620269e-06,0.0002663673076312989,3.8111438751220703,20.0,0.0,7000.0,7000.0,7000.0,7000.0,0.277,32.766,0.267,32.766,32.766,2018.0943603515625,810.0004272460938,26.432186126708984,,False,
1783703604.9876678,2026-07-10T10:13:24,36525,20260710_101318,,,,,,arming,,,,,,,,,False,0.013118007220327854,0.005758925806730986,0.9966540336608887,-0.4793032705783844,0.0183736439794302,-0.4057324528694153,0.0,-1.0,84.0,23.0,0.023,0.0007237739628180861,0.0005559870623983443,0.02422252669930458,0.00911693088710308,0.0048737069591879845,0.0022566490806639194,0.08971934020519257,0.2628326714038849,0.0061406237073242664,0.024991853162646294,0.0067022405564785,4.354526481620269e-06,0.0002663673076312989,3.8111438751220703,20.0,0.0,7000.0,7000.0,7000.0,7000.0,0.277,32.766,0.267,32.766,32.766,2018.0943603515625,810.0004272460938,26.432186126708984,,False,
1783703604.9978626,2026-07-10T10:13:24,36535,20260710_101318,,,,,,arming,,,,,,,,,False,0.009017911739647388,-0.0010685920715332031,0.9994568824768066,1.1359485387802124,0.4091978967189789,-0.031998053193092346,0.0,0.0,78.0,23.0,0.023,0.0011807314585894346,0.0005301705095916986,0.02426910027861595,0.012198644690215588,0.005166483577340841,0.0021029915660619736,0.10795316845178604,0.2175661325454712,0.005501804407685995,0.024991853162646294,0.0067022405564785,4.354526481620269e-06,0.0002663673076312989,3.8111438751220703,20.0,0.0,7000.0,7000.0,7000.0,7000.0,0.277,32.766,0.267,32.766,32.766,2018.0943603515625,810.0004272460938,26.432186126708984,,False,
1783703605.0080671,2026-07-10T10:13:25,36544,20260710_101318,,,,,,arming,,,,,,,,,False,0.009017911739647388,-0.0010685920715332031,0.9994568824768066,1.1359485387802124,0.4091978967189789,-0.031998053193092346,0.0,0.0,91.0,25.0,0.025,0.0011807314585894346,0.0005301705095916986,0.02426910027861595,0.012198644690215588,0.005166483577340841,0.0021029915660619736,0.10795316845178604,0.2175661325454712,0.005501804407685995,0.02459612488746643,0.0036881694104522467,2.78601874015294e-06,0.0002024557179538533,3.8111438751220703,20.0,0.0,7000.0,7000.0,7000.0,7000.0,0.277,32.766,0.267,32.766,32.766,2018.0943603515625,810.0004272460938,26.432186126708984,,False,
1783703605.0182817,2026-07-10T10:13:25,36555,20260710_101318,,,,,,arming,,,,,,,,,False,0.003317076712846756,-0.010531154461205006,1.0039944648742676,0.7152154445648193,0.560815155506134,0.7382931113243103,0.0,0.0,82.0,25.0,0.025,0.0014372809091582894,0.0006293872138485312,0.024631964042782784,0.013714760541915894,0.0056804777123034,0.003424574388191104,0.11097497493028641,0.21469514071941376,0.005774222314357758,0.02459612488746643,0.0036881694104522467,2.78601874015294e-06,0.0002024557179538533,3.8111438751220703,20.0,0.0,7000.0,7000.0,7000.0,7000.0,0.277,32.766,0.267,32.766,32.766,2018.0943603515625,810.0004272460938,26.432186126708984,,False,
1783703605.0284908,2026-07-10T10:13:25,36565,20260710_101318,,,,,,arming,,,,,,,,,False,0.01799812912940979,0.024220993742346764,0.9950641989707947,-0.8472734093666077,-0.5745159983634949,-0.3578956723213196,0.0,0.0,88.0,25.0,0.025,0.0014372809091582894,0.0006293872138485312,0.024631964042782784,0.013714760541915894,0.0056804777123034,0.003424574388191104,0.11097497493028641,0.21469514071941376,0.005774222314357758,0.02459612488746643,0.0036881694104522467,2.78601874015294e-06,0.0002024557179538533,3.8111438751220703,20.0,0.0,7000.0,7000.0,7000.0,7000.0,0.277,32.766,0.267,32.766,32.766,2018.0943603515625,810.0004272460938,26.432186126708984,,False,
1783703605.0386808,2026-07-10T10:13:25,36575,20260710_101318,,,,,,arming,,,,,,,,,False,0.0024912748485803604,-0.009887968190014362,1.0055493116378784,0.49431416392326355,0.20401950180530548,0.5017445683479309,0.0,0.0,94.0,25.0,0.025,0.0017187800258398056,0.0007341641467064619,0.024704230949282646,0.014917873777449131,0.006051888223737478,0.003435868304222822,0.11372807621955872,0.2119569480419159,0.005186957772821188,0.02459612488746643,0.0036881694104522467,2.78601874015294e-06,0.0002024557179538533,3.8111438751220703,20.0,0.0,7000.0,7000.0,7000.0,7000.0,0.277,32.766,0.267,32.766,32.766,2018.0943603515625,810.0004272460938,26.432186126708984,,False,
1783703605.0489695,2026-07-10T10:13:25,36587,20260710_101318,,,,,,arming,,,,,,,,,False,0.01494691800326109,0.01756865531206131,0.9953669309616089,-0.0905361920595169,0.26446229219436646,-0.3215312659740448,0.0,0.0,80.0,25.0,0.025,0.0017187800258398056,0.0007341641467064619,0.024704230949282646,0.014917873777449131,0.006051888223737478,0.003435868304222822,0.11372807621955872,0.2119569480419159,0.005186957772821188,0.02459612488746643,0.0036881694104522467,2.78601874015294e-06,0.0002024557179538533,3.8111438751220703,20.0,0.0,7000.0,7000.0,7000.0,7000.0,0.277,32.766,0.267,32.766,32.766,2018.0943603515625,810.0004272460938,26.432186126708984,,False,
1783703605.0591707,2026-07-10T10:13:25,36595,20260710_101318,,,,,,arming,,,,,,,,,False,0.007012990768998861,-0.00996376946568489,1.004550576210022,-0.016481483355164528,0.18925586342811584,0.0012550571700558066,0.0,0.0,80.0,25.0,0.025,0.0020263297483325005,0.0008555271197110415,0.02477629855275154,0.016028882935643196,0.006436510477215052,0.0036490904167294502,0.11476965248584747,0.20972006022930145,0.006394993979483843,0.02477629855275154,0.003577503142878413,4.972964688931825e-06,0.0002524545416235924,3.8111438751220703,20.0,0.0,7000.0,7000.0,7000.0,7000.0,0.274,32.766,0.266,32.766,32.766,2017.8702392578125,810.0199584960938,26.44192886352539,,False,
1783703605.0693486,2026-07-10T10:13:25,36605,20260710_101318,,,,,,arming,,,,,,,,,False,0.014064408838748932,0.005581248085945845,0.9977518916130066,0.9564819931983948,0.3028864860534668,-0.43636828660964966,0.0,0.0,84.0,20.0,0.02,0.0020263297483325005,0.0008555271197110415,0.02477629855275154,0.016028882935643196,0.006436510477215052,0.0036490904167294502,0.11476965248584747,0.20972006022930145,0.006394993979483843,0.02477629855275154,0.003577503142878413,4.972964688931825e-06,0.0002524545416235924,3.8111438751220703,20.0,0.0,7000.0,7000.0,7000.0,7000.0,0.274,32.766,0.266,32.766,32.766,2017.8702392578125,810.0199584960938,26.44192886352539,,False,
1783703605.079545,2026-07-10T10:13:25,36617,20260710_101318,,,,,,arming,,,,,,,,,False,0.008236321620643139,0.0041421279311180115,1.0001140832901,-0.8217343091964722,-0.5470427870750427,0.06374844908714294,0.0,0.0,87.0,20.0,0.02,0.0023528432939201593,0.0009763844427652657,0.022500667721033096,0.017529573291540146,0.0057815611362457275,-0.007925276644527912,0.11928874999284744,0.20683693885803223,0.005746482405811548,0.02477629855275154,0.003577503142878413,4.972964688931825e-06,0.0002524545416235924,3.8111438751220703,20.0,0.0,7000.0,7000.0,7000.0,7000.0,0.274,32.766,0.266,32.766,32.766,2017.8702392578125,810.0199584960938,26.44192886352539,,False,
1783703605.0897524,2026-07-10T10:13:25,36627,20260710_101318,,,,,,arming,,,,,,,,,False,0.011666898615658283,-0.00012489086657296866,1.0014071464538574,1.1535303592681885,0.46402546763420105,-0.07471625506877899,0.0,0.0,90.0,20.0,0.02,0.0023528432939201593,0.0009763844427652657,0.022500667721033096,0.017529573291540146,0.0057815611362457275,-0.007925276644527912,0.11928874999284744,0.20683693885803223,0.005746482405811548,0.02477629855275154,0.003577503142878413,4.972964688931825e-06,0.0002524545416235924,3.8111438751220703,20.0,0.0,7000.0,7000.0,7000.0,7000.0,0.274,32.766,0.266,32.766,32.766,2017.8702392578125,810.0199584960938,26.44192886352539,,False,
1783703605.0999506,2026-07-10T10:13:25,36637,20260710_101318,,,,,,arming,,,,,,,,,False,0.009795127436518669,0.012922828085720539,0.9961156249046326,-1.0821928977966309,-0.12308628857135773,0.09406998753547668,0.0,0.0,89.0,21.0,0.021,0.0027181683108210564,0.0011003087274730206,0.022340601310133934,0.01887899450957775,0.005868412088602781,-0.007875830866396427,0.12048100680112839,0.2054859697818756,0.00856727734208107,0.02477629855275154,0.003577503142878413,4.972964688931825e-06,0.0002524545416235924,3.8111438751220703,20.0,0.0,7000.0,7000.0,7000.0,7000.0,0.274,32.766,0.266,32.766,32.766,2017.8702392578125,810.0199584960938,26.44192886352539,,False,
1783703605.110121,2026-07-10T10:13:25,36647,20260710_101318,,,,,,arming,,,,,,,,,False,0.010898910462856293,-0.009333347901701927,1.003682255744934,0.7963050007820129,0.010514714755117893,-0.15255914628505707,0.0,0.0,90.0,21.0,0.021,0.0027181683108210564,0.0011003087274730206,0.022340601310133934,0.01887899450957775,0.005868412088602781,-0.007875830866396427,0.12048100680112839,0.2054859697818756,0.00856727734208107,0.021682370454072952,-0.011303647421300411,2.8545425720949424e-06,0.0001811493857530877,3.8111438751220703,20.0,0.0,7000.0,7000.0,7000.0,7000.0,0.274,32.766,0.266,32.766,32.766,2017.8702392578125,810.0199584960938,26.44192886352539,,False,
1783703605.1203027,2026-07-10T10:13:25,36657,20260710_101318,,,,,,arming,,,,,,,,,False,0.011462907306849957,0.01611209101974964,0.9939236640930176,-0.7015287280082703,-0.18423156440258026,-0.07031875103712082,0.0,1.0,89.0,21.0,0.021,0.003108441364020109,0.001231375732459128,0.021571360528469086,0.02008812129497528,0.006144614424556494,-0.010983368381857872,0.11516635119915009,0.2097344696521759,0.009430879727005959,0.021682370454072952,-0.011303647421300411,2.8545425720949424e-06,0.0001811493857530877,3.8111438751220703,20.0,0.0,7000.0,7000.0,7000.0,7000.0,0.274,32.766,0.266,32.766,32.766,2017.8702392578125,810.0199584960938,26.44192886352539,,False,
1783703605.130471,2026-07-10T10:13:25,36667,20260710_101318,,,,,,arming,,,,,,,,,False,0.01026306115090847,-0.015144404023885727,1.0015578269958496,0.29780909419059753,-0.08662477135658264,0.20939989387989044,0.0,0.0,92.0,21.0,0.021,0.003108441364020109,0.001231375732459128,0.021571360528469086,0.02008812129497528,0.006144614424556494,-0.010983368381857872,0.11516635119915009,0.2097344696521759,0.009430879727005959,0.021682370454072952,-0.011303647421300411,2.8545425720949424e-06,0.0001811493857530877,3.8111438751220703,20.0,0.0,7000.0,7000.0,7000.0,7000.0,0.274,32.766,0.266,32.766,32.766,2017.8702392578125,810.0199584960938,26.44192886352539,,False,
1783703605.1406271,2026-07-10T10:13:25,36677,20260710_101318,,,,,,arming,,,,,,,,,False,0.010982314124703407,0.017709719017148018,0.9942495822906494,-0.23131057620048523,-0.24353991448879242,-0.2987769544124603,0.0,-1.0,92.0,21.0,0.021,0.001269795699045062,0.00108330009970814,0.021358672529459,0.009369310922920704,0.004723780322819948,-0.01130636315792799,0.13283641636371613,0.3858979642391205,0.010032670572400093,0.021682370454072952,-0.011303647421300411,2.8545425720949424e-06,0.0001811493857530877,3.8111438751220703,20.0,0.0,7000.0,7000.0,7000.0,7000.0,0.274,32.766,0.266,32.766,32.766,2017.8702392578125,810.0199584960938,26.44192886352539,,False,
1783703605.150805,2026-07-10T10:13:25,36687,20260710_101318,,,,,,arming,,,,,,,,,False,0.011591323651373386,-0.006126429419964552,1.001833438873291,-0.3101153075695038,-0.48833805322647095,0.022380903363227844,0.0,0.0,84.0,21.0,0.021,0.001269795699045062,0.00108330009970814,0.021358672529459,0.009369310922920704,0.004723780322819948,-0.01130636315792799,0.13283641636371613,0.3858979642391205,0.010032670572400093,0.021682370454072952,-0.011303647421300411,2.8545425720949424e-06,0.0001811493857530877,3.8111438751220703,20.0,0.0,7000.0,7000.0,7000.0,7000.0,0.274,32.766,0.266,32.766,32.766,2017.8702392578125,810.0199584960938,26.44192886352539,,False,
1783703605.1610155,2026-07-10T10:13:25,36697,20260710_101318,,,,,,arming,,,,,,,,,False,0.012235832400619984,0.013602088205516338,0.9999696016311646,0.7161105275154114,0.2628856301307678,-0.03418973088264465,0.0,0.0,80.0,22.0,0.022,0.0020060879178345203,0.000949129753280431,0.021127432584762573,0.013132757507264614,0.004034252371639013,-0.011762530542910099,0.14668476581573486,0.3494885265827179,0.010835052467882633,0.021127432584762573,-0.011852730065584183,4.92276103614131e-06,0.00023113917268346995,3.8111438751220703,20.0,0.0,7000.0,7000.0,7000.0,7000.0,0.275,0.39,0.266,32.766,32.766,2017.8262939453125,810.0241088867188,26.45037078857422,,False,
1783703605.1711729,2026-07-10T10:13:25,36707,20260710_101318,,,,,,arming,,,,,,,,,False,0.009429790079593658,0.00893457606434822,1.000102162361145,-0.8858960270881653,-0.3103443384170532,0.3623580038547516,0.0,0.0,89.0,22.0,0.022,0.0020060879178345203,0.000949129753280431,0.021127432584762573,0.013132757507264614,0.004034252371639013,-0.011762530542910099,0.14668476581573486,0.3494885265827179,0.010835052467882633,0.021127432584762573,-0.011852730065584183,4.92276103614131e-06,0.00023113917268346995,3.8111438751220703,20.0,0.0,7000.0,7000.0,7000.0,7000.0,0.275,0.39,0.266,32.766,32.766,2017.8262939453125,810.0241088867188,26.45037078857422,,False,
1783703605.181371,2026-07-10T10:13:25,36717,20260710_101318,,,,,,arming,,,,,,,,,False,0.009222257882356644,0.001198132405988872,1.0072892904281616,0.8938495516777039,0.6632294058799744,0.27183640003204346,0.0,0.0,83.0,22.0,0.022,0.0022847193758934736,0.0010412042029201984,0.021319223567843437,0.014072135090827942,0.005534276831895113,-0.009729510173201561,0.14692266285419464,0.3462910056114197,0.012121976353228092,0.021127432584762573,-0.011852730065584183,4.92276103614131e-06,0.00023113917268346995,3.8111438751220703,20.0,0.0,7000.0,7000.0,7000.0,7000.0,0.275,0.39,0.266,32.766,32.766,2017.8262939453125,810.0241088867188,26.45037078857422,,False,
1783703605.1915448,2026-07-10T10:13:25,36727,20260710_101318,,,,,,arming,,,,,,,,,False,0.009537268429994583,0.01697707735002041,0.9982919692993164,-0.7331652045249939,-0.6548478603363037,0.5368660688400269,0.0,0.0,86.0,22.0,0.022,0.0022847193758934736,0.0010412042029201984,0.021319223567843437,0.014072135090827942,0.005534276831895113,-0.009729510173201561,0.14692266285419464,0.3462910056114197,0.012121976353228092,0.021127432584762573,-0.011852730065584183,4.92276103614131e-06,0.00023113917268346995,3.8111438751220703,20.0,0.0,7000.0,7000.0,7000.0,7000.0,0.275,0.39,0.266,32.766,32.766,2017.8262939453125,810.0241088867188,26.45037078857422,,False,
1783703605.2017531,2026-07-10T10:13:25,36737,20260710_101318,,,,,,arming,,,,,,,,,False,0.012419088743627071,-0.007529003545641899,1.0051027536392212,0.6949511170387268,0.2400563657283783,0.19354012608528137,0.0,0.0,85.0,23.0,0.023,0.00257239886559546,0.0011526941088959575,0.02113506570458412,0.014634715393185616,0.006513882894068956,-0.009054799564182758,0.14967404305934906,0.3426143229007721,0.013717662543058395,0.021127432584762573,-0.011852730065584183,4.92276103614131e-06,0.00023113917268346995,3.8111438751220703,20.0,0.0,7000.0,7000.0,7000.0,7000.0,0.275,0.39,0.266,32.766,32.766,2017.8262939453125,810.0241088867188,26.45037078857422,,False,
1783703605.211982,2026-07-10T10:13:25,36750,20260710_101318,,,,,,arming,,,,,,,,,False,0.008586544543504715,0.013799682259559631,0.993909478187561,-0.8103848695755005,-0.2695784270763397,0.20793703198432922,0.0,1.0,82.0,23.0,0.023,0.0009188922122120857,0.001016424153931439,0.021792571991682053,0.006246146745979786,0.0052589233964681625,-0.005040653515607119,0.14967404305934906,0.3426143229007721,0.013717662543058395,0.02183687500655651,-0.004767599515616894,2.801321670631296e-06,0.00017349317204207182,3.8058650493621826,20.0,0.0,7000.0,7000.0,7000.0,7000.0,0.275,0.39,0.266,32.766,32.766,2017.8262939453125,810.0241088867188,26.45037078857422,,False,
1783703605.2221458,2026-07-10T10:13:25,36757,20260710_101318,,,,,,arming,,,,,,,,,False,0.009084061719477177,-0.009991507045924664,1.006131649017334,0.4325695335865021,0.29655370116233826,-0.3772965669631958,0.0,0.0,92.0,23.0,0.023,0.0009188922122120857,0.001016424153931439,0.021792571991682053,0.006246146745979786,0.0052589233964681625,-0.005040653515607119,0.16647034883499146,0.45362767577171326,0.014528210274875164,0.02183687500655651,-0.004767599515616894,2.801321670631296e-06,0.00017349317204207182,3.8058650493621826,20.0,0.0,7000.0,7000.0,7000.0,7000.0,0.275,0.39,0.266,32.766,32.766,2017.8262939453125,810.0241088867188,26.45037078857422,,False,
1783703605.232341,2026-07-10T10:13:25,36770,20260710_101318,,,,,,arming,,,,,,,,,False,0.007746095769107342,0.017430083826184273,0.9951178431510925,-0.24044449627399445,0.380429208278656,0.3295040428638458,-1.0,-1.0,90.0,23.0,0.023,0.0017832745797932148,0.0018952799728140235,0.021696528419852257,0.009964159689843655,0.008735038340091705,-0.004762987140566111,0.16647034883499146,0.45362767577171326,0.014528210274875164,0.02183687500655651,-0.004767599515616894,2.801321670631296e-06,0.00017349317204207182,3.8058650493621826,20.0,0.0,7000.0,7000.0,7000.0,7000.0,0.275,0.39,0.266,32.766,32.766,2017.8262939453125,810.0241088867188,26.45037078857422,,False,
1783703605.2425344,2026-07-10T10:13:25,36777,20260710_101318,,,,,,arming,,,,,,,,,False,0.01018307451158762,-0.005972207989543676,1.005850076675415,-0.39003098011016846,0.18056587874889374,-0.2879464328289032,0.0,0.0,82.0,23.0,0.023,0.0017832745797932148,0.0018952799728140235,0.021696528419852257,0.009964159689843655,0.008735038340091705,-0.004762987140566111,0.12476518750190735,0.40889835357666016,0.01581052877008915,0.02183687500655651,-0.004767599515616894,2.801321670631296e-06,0.00017349317204207182,3.8058650493621826,20.0,0.0,7000.0,7000.0,7000.0,7000.0,0.275,0.39,0.266,32.766,32.766,2017.8262939453125,810.0241088867188,26.45037078857422,,False,
1783703605.2527547,2026-07-10T10:13:25,36790,20260710_101318,,,,,,arming,,,,,,,,,False,0.008981815539300442,0.009440368972718716,0.9983986020088196,0.7436284422874451,0.047345150262117386,-0.12292374670505524,1.0,0.0,80.0,23.0,0.023,0.0015365571016445756,0.0006960665923543274,0.0216088704764843,0.008467513136565685,0.0025346563197672367,-0.004396889358758926,0.12476518750190735,0.40889835357666016,0.01581052877008915,0.02183687500655651,-0.004767599515616894,2.801321670631296e-06,0.00017349317204207182,3.8058650493621826,20.0,0.0,7000.0,7000.0,7000.0,7000.0,0.275,0.39,0.266,32.766,32.766,2017.8262939453125,810.0241088867188,26.45037078857422,,False,
1783703605.2630446,2026-07-10T10:13:25,36797,20260710_101318,,,,,,arming,,,,,,,,,False,0.016953574493527412,0.00364826456643641,0.9984544515609741,-0.6796319484710693,-0.5583978295326233,-0.20505444705486298,0.0,0.0,84.0,23.0,0.023,0.0015365571016445756,0.0006960665923543274,0.0216088704764843,0.008467513136565685,0.0025346563197672367,-0.004396889358758926,0.19680505990982056,0.4296455681324005,0.015571721829473972,0.0216088704764843,-0.004468947649002075,4.772153715748573e-06,0.0002234816929558292,3.8111438751220703,20.0,0.0,7000.0,7000.0,7000.0,7000.0,32.766,32.766,0.269,32.766,32.766,2017.941162109375,810.0139770507812,26.450847625732422,,False,
1783703605.2732368,2026-07-10T10:13:25,36811,20260710_101318,,,,,,arming,,,,,,,,,False,0.009070856496691704,0.00032731302781030536,0.9984592199325562,0.7731584906578064,0.7926986217498779,-0.15883015096187592,0.0,0.0,91.0,23.0,0.023,0.0017294721910730004,0.0007572431350126863,0.02218000963330269,0.00959496758878231,0.0024157529696822166,-0.0016160468803718686,0.19633089005947113,0.4318356513977051,0.01331162266433239,0.0216088704764843,-0.004468947649002075,4.772153715748573e-06,0.0002234816929558292,3.8111438751220703,20.0,0.0,7000.0,7000.0,7000.0,7000.0,32.766,32.766,0.269,32.766,32.766,2017.941162109375,810.0139770507812,26.450847625732422,,False,
1783703605.2834353,2026-07-10T10:13:25,36817,20260710_101318,,,,,,arming,,,,,,,,,False,0.0155253317207098,0.011995501816272736,0.9970850944519043,-1.0341721773147583,-0.09598767012357712,0.18475808203220367,0.0,0.0,84.0,23.0,0.023,0.0017294721910730004,0.0007572431350126863,0.02218000963330269,0.00959496758878231,0.0024157529696822166,-0.0016160468803718686,0.19633089005947113,0.4318356513977051,0.01331162266433239,0.0216088704764843,-0.004468947649002075,4.772153715748573e-06,0.0002234816929558292,3.8111438751220703,20.0,0.0,7000.0,7000.0,7000.0,7000.0,32.766,32.766,0.269,32.766,32.766,2017.941162109375,810.0139770507812,26.450847625732422,,False,
1783703605.2936113,2026-07-10T10:13:25,36831,20260710_101318,,,,,,arming,,,,,,,,,False,0.0053517380729317665,-0.006861923728138208,1.0051535367965698,1.0865358114242554,0.6994515657424927,-0.4151451587677002,-1.0,0.0,91.0,23.0,0.023,0.001505729160271585,0.0015162070048972964,0.02214467152953148,0.008545315824449062,0.005424985662102699,-0.0015921959420666099,0.1621948927640915,0.4501339793205261,0.010015805251896381,0.0216088704764843,-0.004468947649002075,4.772153715748573e-06,0.0002234816929558292,3.8111438751220703,20.0,0.0,7000.0,7000.0,7000.0,7000.0,32.766,32.766,0.269,32.766,32.766,2017.941162109375,810.0139770507812,26.450847625732422,,False,
1783703605.3037722,2026-07-10T10:13:25,36837,20260710_101318,,,,,,arming,,,,,,,,,False,0.017243459820747375,0.019986450672149658,0.9935044646263123,-0.46715033054351807,0.08320315182209015,0.26883333921432495,1.0,0.0,83.0,25.0,0.025,0.001505729160271585,0.0015162070048972964,0.02214467152953148,0.008545315824449062,0.005424985662102699,-0.0015921959420666099,0.1621948927640915,0.4501339793205261,0.010015805251896381,0.0216088704764843,-0.004468947649002075,4.772153715748573e-06,0.0002234816929558292,3.8111438751220703,20.0,0.0,7000.0,7000.0,7000.0,7000.0,32.766,32.766,0.269,32.766,32.766,2017.941162109375,810.0139770507812,26.450847625732422,,False,
1783703605.3139503,2026-07-10T10:13:25,36851,20260710_101318,,,,,,arming,,,,,,,,,False,0.005652391351759434,-0.011213038116693497,1.0018573999404907,0.36534103751182556,0.02308693341910839,-0.1612723171710968,0.0,0.0,81.0,25.0,0.025,0.001355005195364356,0.0005882662953808904,0.02336231805384159,0.007935839705169201,0.0017859364161267877,0.004084340296685696,0.2067752480506897,0.46050605177879333,0.00944154616445303,0.023321716114878654,0.003964483272284269,2.764117652986897e-06,0.00017246106290258467,3.8111438751220703,20.0,0.0,7000.0,7000.0,7000.0,7000.0,32.766,32.766,0.269,32.766,32.766,2017.941162109375,810.0139770507812,26.450847625732422,,False,
1783703605.3241127,2026-07-10T10:13:25,36857,20260710_101318,,,,,,arming,,,,,,,,,False,0.02039225399494171,0.020915033295750618,0.9971094131469727,-0.4543952941894531,-0.2635054290294647,-0.060455940663814545,0.0,0.0,90.0,25.0,0.025,0.001355005195364356,0.0005882662953808904,0.02336231805384159,0.007935839705169201,0.0017859364161267877,0.004084340296685696,0.2067752480506897,0.46050605177879333,0.00944154616445303,0.023321716114878654,0.003964483272284269,2.764117652986897e-06,0.00017246106290258467,3.8111438751220703,20.0,0.0,7000.0,7000.0,7000.0,7000.0,32.766,32.766,0.269,32.766,32.766,2017.941162109375,810.0139770507812,26.450847625732422,,False,
