pc_time_s,pc_time_iso,cf_time_ms,session_id,motif_id,motif_type,motif_phase,rep_index,motif_param_json,flight_phase,cmd_vx_m_s,cmd_vy_m_s,cmd_yaw_rate_deg_s,cmd_height_m,cmd_vx_raw_m_s,cmd_vy_raw_m_s,cmd_yaw_rate_raw_deg_s,cmd_height_raw_m,safety_override_active,acc_x_g,acc_y_g,acc_z_g,gyro_x_dps,gyro_y_dps,gyro_z_dps,flow_delta_x_px,flow_delta_y_px,flow_squal,zrange_mm,zrange_m,x_m,y_m,z_m,vx_m_s,vy_m_s,vz_m_s,roll_deg,pitch_deg,yaw_deg,kalman_state_z_m,kalman_state_pz,kalman_var_z,kalman_var_pz,battery_v,battery_level_pct,pm_state,motor_m1,motor_m2,motor_m3,motor_m4,range_front_m,range_back_m,range_left_m,range_right_m,range_up_m,baro_asl_m,baro_pressure_hpa,baro_temp_c,safety_flag,should_land,event
1783648139.907171,2026-07-09T18:48:59,,20260709_184855,,,,,,ground_idle,,,,,,,,,False,,,,,,,,,,,,,,,,,,,,,,,,,,,,,,,,,,,,,,,,,False,
1783648139.9176238,2026-07-09T18:48:59,10437,20260709_184855,,,,,,ground_idle,,,,,,,,,False,-0.007048157975077629,-0.00463538384065032,1.0006052255630493,0.09143740683794022,0.001121190725825727,0.08740556985139847,,,,,,,,,,,,,,,,,,,,,,,,,,,,,,,,,,,False,
1783648139.9277706,2026-07-09T18:48:59,10448,20260709_184855,,,,,,ground_idle,,,,,,,,,False,-0.007615054026246071,-0.004364553838968277,1.0001351833343506,-0.15659478306770325,-0.1080792248249054,0.06758064031600952,-1.0,0.0,70.0,0.0,0.0,,,,,,,,,,,,,,,,,,,,,,,,,,,,,,False,
1783648139.9378996,2026-07-09T18:48:59,10458,20260709_184855,,,,,,ground_idle,,,,,,,,,False,-0.005855553783476353,-0.005649236962199211,1.0005786418914795,0.04881283640861511,-0.23494292795658112,-0.1399051398038864,1.0,0.0,65.0,0.0,0.0,-0.0003571061824914068,-0.0007081404328346252,5.274943760014139e-05,-0.001624717959202826,-0.0009641276556067169,0.0005164955509826541,-0.1785735934972763,-0.32613345980644226,0.06401503086090088,,,,,,,,,,,,,,,,,,,,,False,
1783648139.948064,2026-07-09T18:48:59,10468,20260709_184855,,,,,,ground_idle,,,,,,,,,False,-0.006937055382877588,-0.005889320280402899,1.0037046670913696,0.019446132704615593,-0.18985193967819214,0.08534621447324753,-1.0,-1.0,73.0,0.0,0.0,-0.0003571061824914068,-0.0007081404328346252,5.274943760014139e-05,-0.001624717959202826,-0.0009641276556067169,0.0005164955509826541,-0.1785735934972763,-0.32613345980644226,0.06401503086090088,,,,,,,,,,,,,,,,,,,,,False,
1783648139.9582515,2026-07-09T18:48:59,10478,20260709_184855,,,,,,ground_idle,,,,,,,,,False,-0.005904787685722113,-0.0057774921879172325,1.0013535022735596,0.07054538279771805,0.22359676659107208,-0.08223044127225876,2.0,0.0,51.0,0.0,0.0,-0.0001272369991056621,-0.0007041660137474537,6.489414226962253e-05,-0.00038531137397512794,-0.0011740988120436668,0.0006911761593073606,-0.1804923117160797,-0.3335722088813782,0.06314080953598022,,,,,,,,,,,,,,,,,,,,,False,
1783648139.96839,2026-07-09T18:48:59,10488,20260709_184855,,,,,,ground_idle,,,,,,,,,False,-0.006619586143642664,-0.005225463770329952,1.0027329921722412,-0.02936093881726265,-0.10177794843912125,-0.012596639804542065,0.0,0.0,43.0,0.0,0.0,-0.0001272369991056621,-0.0007041660137474537,6.489414226962253e-05,-0.00038531137397512794,-0.0011740988120436668,0.0006911761593073606,-0.1804923117160797,-0.3335722088813782,0.06314080953598022,7.282100705197081e-05,0.0009778128005564213,4.2275273699488025e-06,0.00021772940817754716,3.6633431911468506,10.0,0.0,0.0,0.0,0.0,0.0,32.766,32.766,1.3800000000000001,32.766,32.766,,,,,False,
1783648139.9785466,2026-07-09T18:48:59,10498,20260709_184855,,,,,,ground_idle,,,,,,,,,False,-0.006258751265704632,-0.004031029995530844,1.0024513006210327,-0.3794025182723999,-0.2522284686565399,0.22276297211647034,0.0,0.0,62.0,0.0,0.0,-0.0001353443949483335,-0.0011991162318736315,4.771525345859118e-05,-0.0004992039757780731,-0.003929622936993837,0.0009635926107876003,-0.16103053092956543,-0.3331751525402069,0.06376469135284424,7.282100705197081e-05,0.0009778128005564213,4.2275273699488025e-06,0.00021772940817754716,3.6633431911468506,10.0,0.0,0.0,0.0,0.0,0.0,32.766,32.766,1.3800000000000001,32.766,32.766,,,,,False,
1783648139.9887025,2026-07-09T18:48:59,10508,20260709_184855,,,,,,ground_idle,,,,,,,,,False,-0.006235064007341862,-0.0036550976801663637,1.0014106035232544,-0.05599350482225418,0.019493523985147476,-0.04182128980755806,-2.0,0.0,68.0,0.0,0.0,-0.0001353443949483335,-0.0011991162318736315,4.771525345859118e-05,-0.0004992039757780731,-0.003929622936993837,0.0009635926107876003,-0.16103053092956543,-0.3331751525402069,0.06376469135284424,7.282100705197081e-05,0.0009778128005564213,4.2275273699488025e-06,0.00021772940817754716,3.6633431911468506,10.0,0.0,0.0,0.0,0.0,0.0,32.766,32.766,1.3800000000000001,32.766,32.766,,,,,False,
1783648139.9989161,2026-07-09T18:48:59,10518,20260709_184855,,,,,,ground_idle,,,,,,,,,False,-0.008177532814443111,-0.0035820896737277508,1.0022287368774414,0.1781807392835617,-0.12040694057941437,-0.03850288316607475,3.0,3.0,65.0,0.0,0.0,-0.0001455683377571404,-0.0007291345973499119,7.535872282460332e-05,-0.0006495171110145748,-0.0014216454001143575,0.0014660705346614122,-0.185699000954628,-0.32860803604125977,0.06499966979026794,7.282100705197081e-05,0.0009778128005564213,4.2275273699488025e-06,0.00021772940817754716,3.6633431911468506,10.0,0.0,0.0,0.0,0.0,0.0,32.766,32.766,1.3800000000000001,32.766,32.766,,,,,False,
1783648140.0092967,2026-07-09T18:49:00,10531,20260709_184855,,,,,,ground_idle,,,,,,,,,False,-0.00830608606338501,-0.004206229466944933,0.9992727041244507,-0.09615524858236313,0.16166046261787415,-0.10841557383537292,-5.0,-4.0,72.0,0.0,0.0,0.0001022290307446383,-0.00023885350674390793,7.554424519184977e-05,0.000489678408484906,0.001236025127582252,0.001640882226638496,-0.185699000954628,-0.32860803604125977,0.06499966979026794,7.282100705197081e-05,0.0009778128005564213,4.2275273699488025e-06,0.00021772940817754716,3.6633431911468506,10.0,0.0,0.0,0.0,0.0,0.0,32.766,32.766,1.3800000000000001,32.766,32.766,,,,,False,
1783648140.0194743,2026-07-09T18:49:00,10538,20260709_184855,,,,,,ground_idle,,,,,,,,,False,-0.005395158194005489,-0.005002875346690416,1.0027167797088623,0.15602391958236694,-0.38696786761283875,-0.12245617806911469,4.0,5.0,51.0,0.0,0.0,0.0001022290307446383,-0.00023885350674390793,7.554424519184977e-05,0.000489678408484906,0.001236025127582252,0.001640882226638496,-0.20606915652751923,-0.33980926871299744,0.06472528725862503,9.663901437306777e-05,0.0016229382017627358,2.753252374532167e-06,0.00016873051936272532,3.6633431911468506,10.0,0.0,0.0,0.0,0.0,0.0,32.766,32.766,1.3800000000000001,32.766,32.766,2023.37646484375,809.5305786132812,29.4481258392334,,False,
1783648140.0296798,2026-07-09T18:49:00,10551,20260709_184855,,,,,,ground_idle,,,,,,,,,False,-0.0026631203945726156,-0.0018321170937269926,1.0002402067184448,0.033521637320518494,-0.0390448272228241,0.1280823051929474,-2.0,-3.0,73.0,0.0,0.0,-0.00038868561387062073,-0.0007312881061807275,0.00012196029274491593,-0.0018580605974420905,-0.0013034805888310075,0.001880524680018425,-0.20606915652751923,-0.33980926871299744,0.06472528725862503,9.663901437306777e-05,0.0016229382017627358,2.753252374532167e-06,0.00016873051936272532,3.6633431911468506,10.0,0.0,0.0,0.0,0.0,0.0,32.766,32.766,1.3800000000000001,32.766,32.766,2023.37646484375,809.5305786132812,29.4481258392334,,False,
1783648140.039837,2026-07-09T18:49:00,10558,20260709_184855,,,,,,ground_idle,,,,,,,,,False,-0.005157297942787409,-0.001449063653126359,0.9976508021354675,0.16532199084758759,-0.19175469875335693,-0.15384213626384735,-3.0,-1.0,73.0,0.0,0.0,-0.00038868561387062073,-0.0007312881061807275,0.00012196029274491593,-0.0018580605974420905,-0.0013034805888310075,0.001880524680018425,-0.18742306530475616,-0.3204501271247864,0.06487078964710236,9.663901437306777e-05,0.0016229382017627358,2.753252374532167e-06,0.00016873051936272532,3.6633431911468506,10.0,0.0,0.0,0.0,0.0,0.0,32.766,32.766,1.3800000000000001,32.766,32.766,2023.37646484375,809.5305786132812,29.4481258392334,,False,
1783648140.0500379,2026-07-09T18:49:00,10571,20260709_184855,,,,,,ground_idle,,,,,,,,,False,-0.006676135119050741,-0.0037956128362566233,0.9991599321365356,-0.22004689276218414,0.020263437181711197,0.04915989935398102,2.0,1.0,70.0,0.0,0.0,-0.00038914993638172746,-0.0004872118588536978,0.00016207819862756878,-0.0015288075665012002,0.00015446924953721464,0.0016523608937859535,-0.18742306530475616,-0.3204501271247864,0.06487078964710236,9.663901437306777e-05,0.0016229382017627358,2.753252374532167e-06,0.00016873051936272532,3.6633431911468506,10.0,0.0,0.0,0.0,0.0,0.0,32.766,32.766,1.3800000000000001,32.766,32.766,2023.37646484375,809.5305786132812,29.4481258392334,,False,
1783648140.0602481,2026-07-09T18:49:00,10578,20260709_184855,,,,,,ground_idle,,,,,,,,,False,-0.006375170778483152,-0.0034392012748867273,1.001132607460022,0.049675680696964264,-0.008910530246794224,-0.0361572690308094,1.0,0.0,47.0,0.0,0.0,-0.00038914993638172746,-0.0004872118588536978,0.00016207819862756878,-0.0015288075665012002,0.00015446924953721464,0.0016523608937859535,-0.19551536440849304,-0.3197714388370514,0.0645553320646286,9.663901437306777e-05,0.0016229382017627358,2.753252374532167e-06,0.00016873051936272532,3.6633431911468506,10.0,0.0,0.0,0.0,0.0,0.0,32.766,32.766,1.3800000000000001,32.766,32.766,2023.37646484375,809.5305786132812,29.4481258392334,,False,
1783648140.0704145,2026-07-09T18:49:00,10592,20260709_184855,,,,,,ground_idle,,,,,,,,,False,-0.007263469509780407,-0.0036782901734113693,0.9994958639144897,0.17414017021656036,0.01486318837851286,0.029644044116139412,0.0,0.0,44.0,0.0,0.0,-0.00040755770169198513,-0.0007368349470198154,0.00011201696906937286,-0.0016729249618947506,-0.001114219892770052,0.001285333069972694,-0.1858678013086319,-0.3209923207759857,0.06505165994167328,0.00017910709721036255,0.001660226029343903,4.227501904097153e-06,0.00021772872423753142,3.6633431911468506,10.0,0.0,0.0,0.0,0.0,0.0,32.766,32.766,1.401,32.766,32.766,2023.37646484375,809.5305786132812,29.4481258392334,,False,
1783648140.080575,2026-07-09T18:49:00,10598,20260709_184855,,,,,,ground_idle,,,,,,,,,False,-0.006800769362598658,-0.0030772199388593435,1.0007883310317993,0.2612638771533966,0.04449247568845749,-0.04136623069643974,2.0,0.0,68.0,0.0,0.0,-0.00040755770169198513,-0.0007368349470198154,0.00011201696906937286,-0.0016729249618947506,-0.001114219892770052,0.001285333069972694,-0.1858678013086319,-0.3209923207759857,0.06505165994167328,0.00017910709721036255,0.001660226029343903,4.227501904097153e-06,0.00021772872423753142,3.6633431911468506,10.0,0.0,0.0,0.0,0.0,0.0,32.766,32.766,1.401,32.766,32.766,2023.37646484375,809.5305786132812,29.4481258392334,,False,
1783648140.0907333,2026-07-09T18:49:00,10612,20260709_184855,,,,,,ground_idle,,,,,,,,,False,-0.004519989714026451,-0.0028226247522979975,1.002719759941101,0.18474534153938293,0.1711055189371109,0.16969585418701172,-2.0,0.0,66.0,0.0,0.0,-0.00039704274968244135,-0.0007383077754639089,0.00014067832671571523,-0.0016220411052927375,-0.0009485245100222528,0.0014538356335833669,-0.1847941279411316,-0.3217242658138275,0.06418009102344513,0.00017910709721036255,0.001660226029343903,4.227501904097153e-06,0.00021772872423753142,3.6633431911468506,10.0,0.0,0.0,0.0,0.0,0.0,32.766,32.766,1.401,32.766,32.766,2023.37646484375,809.5305786132812,29.4481258392334,,False,
1783648140.1008956,2026-07-09T18:49:00,10618,20260709_184855,,,,,,ground_idle,,,,,,,,,False,-0.005397701635956764,-0.0037877580616623163,1.0030564069747925,-0.015021412633359432,-0.2044672966003418,0.030865389853715897,0.0,-1.0,68.0,0.0,0.0,-0.00039704274968244135,-0.0007383077754639089,0.00014067832671571523,-0.0016220411052927375,-0.0009485245100222528,0.0014538356335833669,-0.1847941279411316,-0.3217242658138275,0.06418009102344513,0.00017910709721036255,0.001660226029343903,4.227501904097153e-06,0.00021772872423753142,3.6633431911468506,10.0,0.0,0.0,0.0,0.0,0.0,32.766,32.766,1.401,32.766,32.766,2023.37646484375,809.5305786132812,29.4481258392334,,False,
1783648140.1112223,2026-07-09T18:49:00,10632,20260709_184855,,,,,,ground_idle,,,,,,,,,False,-0.004738229792565107,-0.005124465096741915,1.0018855333328247,-0.20258693397045135,0.11624017357826233,0.12913060188293457,-2.0,0.0,73.0,0.0,0.0,-0.00015330183668993413,-0.000251172692514956,0.00010597742948448285,-5.6036551541183144e-05,0.0015570108080282807,0.0016305994940921664,-0.20430879294872284,-0.3312412202358246,0.06563924998044968,0.00017910709721036255,0.001660226029343903,4.227501904097153e-06,0.00021772872423753142,3.6633431911468506,10.0,0.0,0.0,0.0,0.0,0.0,32.766,32.766,1.401,32.766,32.766,2023.37646484375,809.5305786132812,29.4481258392334,,False,
1783648140.121421,2026-07-09T18:49:00,10638,20260709_184855,,,,,,ground_idle,,,,,,,,,False,-0.005761163774877787,-0.003750195959582925,1.0014240741729736,0.13627839088439941,-0.06203632056713104,-0.0733894482254982,3.0,0.0,48.0,0.0,0.0,-0.00015330183668993413,-0.000251172692514956,0.00010597742948448285,-5.6036551541183144e-05,0.0015570108080282807,0.0016305994940921664,-0.20430879294872284,-0.3312412202358246,0.06563924998044968,0.00010792769899126142,0.0016353121027350426,2.4760579435678665e-06,0.00016773087554611266,3.6633431911468506,10.0,0.0,0.0,0.0,0.0,0.0,32.766,32.766,1.401,32.766,32.766,2023.42578125,809.5263671875,29.456327438354492,,False,
1783648140.13158,2026-07-09T18:49:00,10651,20260709_184855,,,,,,ground_idle,,,,,,,,,False,-0.006496964022517204,-0.0021996176801621914,1.000718593597412,0.05662624537944794,-0.14780369400978088,0.03502418473362923,3.0,2.0,72.0,0.0,0.0,-0.0006179357878863811,-0.001669895718805492,0.00014337332686409354,-0.002308132126927376,-0.005761594511568546,0.00198223814368248,-0.20430879294872284,-0.3312412202358246,0.06563924998044968,0.00010792769899126142,0.0016353121027350426,2.4760579435678665e-06,0.00016773087554611266,3.6633431911468506,10.0,0.0,0.0,0.0,0.0,0.0,32.766,32.766,1.401,32.766,32.766,2023.42578125,809.5263671875,29.456327438354492,,False,
1783648140.1417615,2026-07-09T18:49:00,10658,20260709_184855,,,,,,ground_idle,,,,,,,,,False,-0.007250105496495962,-0.004492159001529217,1.0035051107406616,0.06737308204174042,-0.1345958262681961,-0.009997229091823101,-3.0,-2.0,69.0,0.0,0.0,-0.0006179357878863811,-0.001669895718805492,0.00014337332686409354,-0.002308132126927376,-0.005761594511568546,0.00198223814368248,-0.1486504077911377,-0.31313782930374146,0.06510955095291138,0.00010792769899126142,0.0016353121027350426,2.4760579435678665e-06,0.00016773087554611266,3.6633431911468506,10.0,0.0,0.0,0.0,0.0,0.0,32.766,32.766,1.401,32.766,32.766,2023.42578125,809.5263671875,29.456327438354492,,False,
1783648140.1519263,2026-07-09T18:49:00,10672,20260709_184855,,,,,,ground_idle,,,,,,,,,False,-0.00699149863794446,-0.004873227793723345,1.0017385482788086,-0.15383517742156982,0.17401130497455597,-0.14643408358097076,-4.0,-1.0,71.0,0.0,0.0,8.597630949225277e-05,-2.4551038222853094e-05,0.00019600012456066906,0.0011623884784057736,0.002843993715941906,0.0024942068848758936,-0.21754448115825653,-0.34229716658592224,0.06498746573925018,0.00010792769899126142,0.0016353121027350426,2.4760579435678665e-06,0.00016773087554611266,3.6633431911468506,10.0,0.0,0.0,0.0,0.0,0.0,32.766,32.766,1.401,32.766,32.766,2023.42578125,809.5263671875,29.456327438354492,,False,
1783648140.1621125,2026-07-09T18:49:00,10685,20260709_184855,,,,,,ground_idle,,,,,,,,,False,-0.0056886691600084305,-0.005242873914539814,1.0011898279190063,0.08718041330575943,-0.31553909182548523,-0.07549338042736053,5.0,2.0,52.0,0.0,0.0,8.597630949225277e-05,-2.4551038222853094e-05,0.00019600012456066906,0.0011623884784057736,0.002843993715941906,0.0024942068848758936,-0.21754448115825653,-0.34229716658592224,0.06498746573925018,0.0002327405964024365,0.0026753502897918224,4.227500085107749e-06,0.00021772878244519234,3.6633431911468506,10.0,0.0,0.0,0.0,0.0,0.0,32.766,32.766,1.401,32.766,32.766,2023.42578125,809.5263671875,29.456327438354492,,False,
1783648140.1723256,2026-07-09T18:49:00,10692,20260709_184855,,,,,,ground_idle,,,,,,,,,False,-0.006152236834168434,-0.0040228841826319695,1.0025426149368286,-0.14816173911094666,-0.5409162640571594,0.002564287045970559,0.0,-1.0,49.0,0.0,0.0,-0.00015389267355203629,-0.001178175094537437,0.00014869528240524232,-0.0001244246814167127,-0.003344014985486865,0.0022430436220020056,-0.1708977073431015,-0.33016616106033325,0.06305596232414246,0.0002327405964024365,0.0026753502897918224,4.227500085107749e-06,0.00021772878244519234,3.6633431911468506,10.0,0.0,0.0,0.0,0.0,0.0,32.766,32.766,1.4020000000000001,32.766,32.766,2023.42578125,809.5263671875,29.456327438354492,,False,
1783648140.1825,2026-07-09T18:49:00,10698,20260709_184855,,,,,,ground_idle,,,,,,,,,False,-0.006147867534309626,-0.003921069670468569,1.0009419918060303,0.10981003940105438,0.07271985709667206,-0.0367983803153038,2.0,1.0,67.0,0.0,0.0,-0.00015389267355203629,-0.001178175094537437,0.00014869528240524232,-0.0001244246814167127,-0.003344014985486865,0.0022430436220020056,-0.1708977073431015,-0.33016616106033325,0.06305596232414246,0.0002327405964024365,0.0026753502897918224,4.227500085107749e-06,0.00021772878244519234,3.6633431911468506,10.0,0.0,0.0,0.0,0.0,0.0,32.766,32.766,1.4020000000000001,32.766,32.766,2023.42578125,809.5263671875,29.456327438354492,,False,
1783648140.1926596,2026-07-09T18:49:00,10712,20260709_184855,,,,,,ground_idle,,,,,,,,,False,-0.005513207986950874,-0.0036857668310403824,1.0006110668182373,0.0201644916087389,0.34626996517181396,-0.053082920610904694,-3.0,-2.0,70.0,0.0,0.0,7.989454024937004e-05,-0.0009507960639894009,0.00020153426157776266,0.0010823869379237294,-0.001966628711670637,0.002526558469980955,-0.18287266790866852,-0.3381764590740204,0.06239865720272064,0.0002327405964024365,0.0026753502897918224,4.227500085107749e-06,0.00021772878244519234,3.6633431911468506,10.0,0.0,0.0,0.0,0.0,0.0,32.766,32.766,1.4020000000000001,32.766,32.766,2023.42578125,809.5263671875,29.456327438354492,,False,
1783648140.2028196,2026-07-09T18:49:00,10718,20260709_184855,,,,,,ground_idle,,,,,,,,,False,-0.004922629799693823,-0.0034035760909318924,1.0013163089752197,0.02112572453916073,0.21540521085262299,-0.1670699566602707,0.0,1.0,63.0,0.0,0.0,7.989454024937004e-05,-0.0009507960639894009,0.00020153426157776266,0.0010823869379237294,-0.001966628711670637,0.002526558469980955,-0.18287266790866852,-0.3381764590740204,0.06239865720272064,0.0002327405964024365,0.0026753502897918224,4.227500085107749e-06,0.00021772878244519234,3.6633431911468506,10.0,0.0,0.0,0.0,0.0,0.0,32.766,32.766,1.4020000000000001,32.766,32.766,2023.42578125,809.5263671875,29.456327438354492,,False,
1783648140.2131128,2026-07-09T18:49:00,10735,20260709_184855,,,,,,ground_idle,,,,,,,,,False,-0.008967185392975807,-0.0038899462670087814,1.0019686222076416,-0.27941522002220154,0.030769189819693565,-0.019281303510069847,-3.0,-1.0,70.0,0.0,0.0,8.335152961080894e-05,-0.00027680015773512423,0.00015467069169972092,0.0010893525322899222,0.0016289250925183296,0.0022427099756896496,-0.21177054941654205,-0.3422892689704895,0.06193891167640686,0.00018054612155538052,0.0024067899212241173,2.7532496460480615e-06,0.00016873110143933445,3.6633431911468506,10.0,0.0,0.0,0.0,0.0,0.0,32.766,32.766,1.4020000000000001,32.766,32.766,2023.42578125,809.5263671875,29.456327438354492,,False,
1783648140.2232907,2026-07-09T18:49:00,10738,20260709_184855,,,,,,ground_idle,,,,,,,,,False,-0.008007985539734364,-0.002745124977082014,1.0014525651931763,0.11335425078868866,-0.10489815473556519,-0.09546779096126556,2.0,2.0,44.0,0.0,0.0,8.335152961080894e-05,-0.00027680015773512423,0.00015467069169972092,0.0010893525322899222,0.0016289250925183296,0.0022427099756896496,-0.21177054941654205,-0.3422892689704895,0.06193891167640686,0.00018054612155538052,0.0024067899212241173,2.7532496460480615e-06,0.00016873110143933445,3.6633431911468506,10.0,0.0,0.0,0.0,0.0,0.0,32.766,32.766,1.4020000000000001,0.386,32.766,2023.387451171875,809.5299072265625,29.462623596191406,,False,
1783648140.2334478,2026-07-09T18:49:00,10752,20260709_184855,,,,,,ground_idle,,,,,,,,,False,-0.006630824878811836,-0.004345753230154514,1.0013701915740967,0.0974741205573082,-0.03960144892334938,-0.1645827293395996,1.0,0.0,66.0,0.0,0.0,-0.0003563055652193725,-0.0009472476085647941,0.00020566613238770515,-0.0016989716095849872,-0.0018508863868191838,0.002590003190562129,-0.18394365906715393,-0.3253902792930603,0.06056707352399826,0.00018054612155538052,0.0024067899212241173,2.7532496460480615e-06,0.00016873110143933445,3.6633431911468506,10.0,0.0,0.0,0.0,0.0,0.0,32.766,32.766,1.4020000000000001,0.386,32.766,2023.387451171875,809.5299072265625,29.462623596191406,,False,
1783648140.2436132,2026-07-09T18:49:00,10758,20260709_184855,,,,,,ground_idle,,,,,,,,,False,-0.00653081713244319,-0.002698936965316534,1.0012407302856445,-0.09991130977869034,0.07120659202337265,-0.0513671338558197,-3.0,-2.0,72.0,0.0,0.0,-0.0003563055652193725,-0.0009472476085647941,0.00020566613238770515,-0.0016989716095849872,-0.0018508863868191838,0.002590003190562129,-0.18394365906715393,-0.3253902792930603,0.06056707352399826,0.00018054612155538052,0.0024067899212241173,2.7532496460480615e-06,0.00016873110143933445,3.6633431911468506,10.0,0.0,0.0,0.0,0.0,0.0,32.766,32.766,1.4020000000000001,0.386,32.766,2023.387451171875,809.5299072265625,29.462623596191406,,False,
1783648140.2537823,2026-07-09T18:49:00,10772,20260709_184855,,,,,,ground_idle,,,,,,,,,False,-0.008030254393815994,-0.0019599113147705793,0.9999150633811951,-0.19368793070316315,-0.07390716671943665,-0.11416834592819214,2.0,1.0,65.0,0.0,0.0,-0.00012586676166392863,-0.000721340999007225,0.00026444776449352503,-0.0006309261079877615,-0.0006624782108701766,0.002862827153876424,-0.19291017949581146,-0.3371213376522064,0.061482906341552734,0.00018054612155538052,0.0024067899212241173,2.7532496460480615e-06,0.00016873110143933445,3.6633431911468506,10.0,0.0,0.0,0.0,0.0,0.0,32.766,32.766,1.4020000000000001,0.386,32.766,2023.387451171875,809.5299072265625,29.462623596191406,,False,
1783648140.264087,2026-07-09T18:49:00,10786,20260709_184855,,,,,,ground_idle,,,,,,,,,False,-0.008824762888252735,-0.0023435032926499844,0.999725878238678,-0.021472111344337463,-0.022590212523937225,0.18323594331741333,0.0,1.0,50.0,0.0,0.0,-0.00012586676166392863,-0.000721340999007225,0.00026444776449352503,-0.0006309261079877615,-0.0006624782108701766,0.002862827153876424,-0.19291017949581146,-0.3371213376522064,0.061482906341552734,0.00029315115534700453,0.0028466470539569855,4.2275196392438374e-06,0.00021772996115032583,3.6633431911468506,10.0,0.0,0.0,0.0,0.0,0.0,32.766,32.766,1.354,0.386,32.766,2023.387451171875,809.5299072265625,29.462623596191406,,False,
1783648140.2742615,2026-07-09T18:49:00,10792,20260709_184855,,,,,,ground_idle,,,,,,,,,False,-0.006075868848711252,-0.0032312588300555944,1.0003023147583008,0.044973768293857574,-0.37150388956069946,0.04972512274980545,1.0,0.0,44.0,0.0,0.0,-0.0003499442245811224,-0.000938188866712153,0.0001838866446632892,-0.0021541635505855083,-0.0015101118478924036,0.002166759455576539,-0.1846652626991272,-0.3273966908454895,0.06176237016916275,0.00029315115534700453,0.0028466470539569855,4.2275196392438374e-06,0.00021772996115032583,3.6633431911468506,10.0,0.0,0.0,0.0,0.0,0.0,32.766,32.766,1.354,0.386,32.766,2023.387451171875,809.5299072265625,29.462623596191406,,False,
1783648140.284418,2026-07-09T18:49:00,10798,20260709_184855,,,,,,ground_idle,,,,,,,,,False,-0.004876728169620037,-0.005227898713201284,0.9986271262168884,-0.24632564187049866,-0.01237509399652481,-0.181428462266922,-4.0,-2.0,63.0,0.0,0.0,-0.0003499442245811224,-0.000938188866712153,0.0001838866446632892,-0.0021541635505855083,-0.0015101118478924036,0.002166759455576539,-0.1846652626991272,-0.3273966908454895,0.06176237016916275,0.00029315115534700453,0.0028466470539569855,4.2275196392438374e-06,0.00021772996115032583,3.6633431911468506,10.0,0.0,0.0,0.0,0.0,0.0,32.766,32.766,1.354,0.386,32.766,2023.387451171875,809.5299072265625,29.462623596191406,,False,
1783648140.2945926,2026-07-09T18:49:00,10817,20260709_184855,,,,,,ground_idle,,,,,,,,,False,-0.0054433695040643215,-0.004767526872456074,1.0001271963119507,-0.017436841502785683,0.15850985050201416,0.08476599305868149,5.0,0.0,70.0,0.0,0.0,8.905422873795033e-05,-0.0011560085695236921,0.00023566717572975904,0.00039020844269543886,-0.0028883153572678566,0.0021294322796165943,-0.17582570016384125,-0.3438127338886261,0.06107969582080841,0.00029315115534700453,0.0028466470539569855,4.2275196392438374e-06,0.00021772996115032583,3.6633431911468506,10.0,0.0,0.0,0.0,0.0,0.0,32.766,32.766,1.354,0.386,32.766,2023.387451171875,809.5299072265625,29.462623596191406,,False,
1783648140.3047528,2026-07-09T18:49:00,10818,20260709_184855,,,,,,ground_idle,,,,,,,,,False,-0.0054433695040643215,-0.004767526872456074,1.0001271963119507,-0.017436841502785683,0.15850985050201416,0.08476599305868149,-1.0,1.0,71.0,0.0,0.0,8.905422873795033e-05,-0.0011560085695236921,0.00023566717572975904,0.00039020844269543886,-0.0028883153572678566,0.0021294322796165943,-0.17582570016384125,-0.3438127338886261,0.06107969582080841,0.00029315115534700453,0.0028466470539569855,4.2275196392438374e-06,0.00021772996115032583,3.6633431911468506,10.0,0.0,0.0,0.0,0.0,0.0,32.766,32.766,1.354,0.386,32.766,2023.387451171875,809.5299072265625,29.462623596191406,,False,
1783648140.3149087,2026-07-09T18:49:00,10836,20260709_184855,,,,,,ground_idle,,,,,,,,,False,-0.0040029860101640224,-0.004873931873589754,0.999772846698761,0.002468524966388941,-0.14227955043315887,0.036738038063049316,-1.0,1.0,77.0,0.0,0.0,-0.000338620797265321,-0.0007256795652210712,0.00016952445730566978,-0.0016703540459275246,-0.0006385556189343333,0.001536801690235734,-0.19519926607608795,-0.32998472452163696,0.06212777644395828,0.00016952445730566978,0.0015249770367518067,2.476058625688893e-06,0.0001677314139669761,3.6633431911468506,10.0,0.0,0.0,0.0,0.0,0.0,32.766,32.766,1.354,0.353,32.766,2023.387451171875,809.5299072265625,29.462623596191406,,False,
1783648140.325116,2026-07-09T18:49:00,10848,20260709_184855,,,,,,ground_idle,,,,,,,,,False,-0.0070735556073486805,-0.0033478811383247375,1.0006015300750732,0.2307969033718109,0.012993870303034782,0.08466183394193649,1.0,-1.0,64.0,0.0,0.0,-0.000338620797265321,-0.0007256795652210712,0.00016952445730566978,-0.0016703540459275246,-0.0006385556189343333,0.001536801690235734,-0.19519926607608795,-0.32998472452163696,0.06212777644395828,0.00016952445730566978,0.0015249770367518067,2.476058625688893e-06,0.0001677314139669761,3.6633431911468506,10.0,0.0,0.0,0.0,0.0,0.0,32.766,32.766,1.354,0.353,32.766,2023.4093017578125,809.5280151367188,29.47174072265625,,False,
1783648140.335273,2026-07-09T18:49:00,10857,20260709_184855,,,,,,ground_idle,,,,,,,,,False,-0.007431035861372948,-0.004124247003346682,1.0003867149353027,0.07635263353586197,0.02955007553100586,-0.08616328984498978,1.0,-1.0,64.0,0.0,0.0,-0.0001276625698665157,-0.0009580078767612576,0.00019882550986949354,-0.00019094276649411768,-0.0017498097149655223,0.001353863743133843,-0.18373988568782806,-0.33829328417778015,0.06279516965150833,0.00016952445730566978,0.0015249770367518067,2.476058625688893e-06,0.0001677314139669761,3.6633431911468506,10.0,0.0,0.0,0.0,0.0,0.0,32.766,32.766,1.354,0.353,32.766,2023.4093017578125,809.5280151367188,29.47174072265625,,False,
1783648140.3454292,2026-07-09T18:49:00,10867,20260709_184855,,,,,,ground_idle,,,,,,,,,False,-0.004841709975153208,-0.002858178224414587,0.9994251728057861,-0.38707709312438965,-0.019335296005010605,0.06129104644060135,-1.0,0.0,72.0,0.0,0.0,-0.0001276625698665157,-0.0009580078767612576,0.00019882550986949354,-0.00019094276649411768,-0.0017498097149655223,0.001353863743133843,-0.18373988568782806,-0.33829328417778015,0.06279516965150833,0.00016952445730566978,0.0015249770367518067,2.476058625688893e-06,0.0001677314139669761,3.6633431911468506,10.0,0.0,0.0,0.0,0.0,0.0,32.766,32.766,1.354,0.353,32.766,2023.4093017578125,809.5280151367188,29.47174072265625,,False,
1783648140.3555894,2026-07-09T18:49:00,10877,20260709_184855,,,,,,ground_idle,,,,,,,,,False,-0.0032062488608062267,-0.003273921087384224,0.9986364841461182,0.08445930480957031,-0.21023999154567719,0.2082728147506714,0.0,1.0,65.0,0.0,0.0,-0.0003524654603097588,-0.0007350587984547019,0.00022716807143297046,-0.001599178067408502,-0.0005600362783297896,0.001417671563103795,-0.19139939546585083,-0.327433705329895,0.06243838369846344,0.00016952445730566978,0.0015249770367518067,2.476058625688893e-06,0.0001677314139669761,3.6633431911468506,10.0,0.0,0.0,0.0,0.0,0.0,32.766,32.766,1.354,0.353,32.766,2023.4093017578125,809.5280151367188,29.47174072265625,,False,
1783648140.3657496,2026-07-09T18:49:00,10886,20260709_184855,,,,,,ground_idle,,,,,,,,,False,-0.0032062488608062267,-0.003273921087384224,0.9986364841461182,0.08445930480957031,-0.21023999154567719,0.2082728147506714,1.0,-2.0,47.0,0.0,0.0,-0.0003524654603097588,-0.0007350587984547019,0.00022716807143297046,-0.001599178067408502,-0.0005600362783297896,0.001417671563103795,-0.19139939546585083,-0.327433705329895,0.06243838369846344,0.00025543675292283297,0.0012243213132023811,4.697458280134015e-06,0.0002187305362895131,3.6633431911468506,10.0,0.0,0.0,0.0,0.0,0.0,32.766,32.766,1.3900000000000001,0.353,32.766,2023.4093017578125,809.5280151367188,29.47174072265625,,False,
1783648140.3759184,2026-07-09T18:49:00,10898,20260709_184855,,,,,,ground_idle,,,,,,,,,False,-0.005900017451494932,-0.0016900391783565283,1.001165747642517,-0.07294631004333496,0.0751485824584961,-0.1525532752275467,0.0,0.0,68.0,0.0,0.0,-0.00011808825365733355,-0.0009597196476534009,0.00014591528452001512,4.627081216312945e-05,-0.001639990834519267,0.0006561023183166981,-0.18263116478919983,-0.3362596929073334,0.06348957866430283,0.00025543675292283297,0.0012243213132023811,4.697458280134015e-06,0.0002187305362895131,3.6633431911468506,10.0,0.0,0.0,0.0,0.0,0.0,32.766,32.766,1.3900000000000001,0.353,32.766,2023.4093017578125,809.5280151367188,29.47174072265625,,False,
1783648140.3860974,2026-07-09T18:49:00,10908,20260709_184855,,,,,,ground_idle,,,,,,,,,False,-0.007377872243523598,-0.002971413778141141,1.0004507303237915,0.043753061443567276,0.040380608290433884,0.05600597336888313,-1.0,0.0,69.0,0.0,0.0,-0.00011808825365733355,-0.0009597196476534009,0.00014591528452001512,4.627081216312945e-05,-0.001639990834519267,0.0006561023183166981,-0.18263116478919983,-0.3362596929073334,0.06348957866430283,0.00025543675292283297,0.0012243213132023811,4.697458280134015e-06,0.0002187305362895131,3.6633431911468506,10.0,0.0,0.0,0.0,0.0,0.0,32.766,32.766,1.3900000000000001,0.353,32.766,2023.4093017578125,809.5280151367188,29.47174072265625,,False,
1783648140.3963072,2026-07-09T18:49:00,10918,20260709_184855,,,,,,ground_idle,,,,,,,,,False,-0.00520142400637269,-0.0028307263273745775,1.0000044107437134,0.019071903079748154,-0.028042417019605637,0.06123293936252594,0.0,0.0,68.0,0.0,0.0,-0.00011731672566384077,-0.0007460142369382083,0.00016029317339416593,1.6010821127565578e-05,-0.0002826063719112426,0.0007768215145915747,-0.19344404339790344,-0.33673739433288574,0.06404469907283783,0.00025543675292283297,0.0012243213132023811,4.697458280134015e-06,0.0002187305362895131,3.6633431911468506,10.0,0.0,0.0,0.0,0.0,0.0,32.766,32.766,1.3900000000000001,0.353,32.766,2023.4093017578125,809.5280151367188,29.47174072265625,,False,
1783648140.4065082,2026-07-09T18:49:00,10928,20260709_184855,,,,,,ground_idle,,,,,,,,,False,-0.005575142335146666,-0.0032856713514775038,0.9985529780387878,0.15700452029705048,0.2839612066745758,-0.14108847081661224,-3.0,0.0,68.0,0.0,0.0,-0.00011731672566384077,-0.0007460142369382083,0.00016029317339416593,1.6010821127565578e-05,-0.0002826063719112426,0.0007768215145915747,-0.19344404339790344,-0.33673739433288574,0.06404469907283783,0.00025543675292283297,0.0012243213132023811,4.697458280134015e-06,0.0002187305362895131,3.6633431911468506,10.0,0.0,0.0,0.0,0.0,0.0,32.766,32.766,1.3900000000000001,0.353,32.766,2023.4093017578125,809.5280151367188,29.47174072265625,,False,
1783648140.4166956,2026-07-09T18:49:00,10935,20260709_184855,,,,,,ground_idle,,,,,,,,,False,-0.005575142335146666,-0.0032856713514775038,0.9985529780387878,0.15700452029705048,0.2839612066745758,-0.14108847081661224,-3.0,0.0,68.0,0.0,0.0,-0.00012080368469469249,-3.165938687743619e-05,0.00010641011613188311,-1.577429793542251e-05,0.003601974807679653,0.0004124112019781023,-0.22232945263385773,-0.3357175588607788,0.0637093037366867,0.00011545913730515167,0.00039359484799206257,2.7532619242265355e-06,0.00016873198910616338,3.6633431911468506,10.0,0.0,0.0,0.0,0.0,0.0,32.766,32.766,1.3900000000000001,0.353,32.766,2023.4093017578125,809.5280151367188,29.47174072265625,,False,
1783648140.4268634,2026-07-09T18:49:00,10948,20260709_184855,,,,,,ground_idle,,,,,,,,,False,-0.0064794872887432575,-0.0029609850607812405,0.999221920967102,0.16543824970722198,0.2046806365251541,-0.12212146818637848,0.0,0.0,68.0,0.0,0.0,-0.00012080368469469249,-3.165938687743619e-05,0.00010641011613188311,-1.577429793542251e-05,0.003601974807679653,0.0004124112019781023,-0.22232945263385773,-0.3357175588607788,0.0637093037366867,0.00011545913730515167,0.00039359484799206257,2.7532619242265355e-06,0.00016873198910616338,3.6633431911468506,10.0,0.0,0.0,0.0,0.0,0.0,32.766,32.766,1.3900000000000001,32.766,32.766,2023.5076904296875,809.5188598632812,29.48025131225586,,False,
1783648140.4371912,2026-07-09T18:49:00,10958,20260709_184855,,,,,,ground_idle,,,,,,,,,False,-0.006427314132452011,-0.002501473296433687,0.9998200535774231,0.05185825005173683,0.21110045909881592,-0.1349577158689499,3.0,1.0,67.0,0.0,0.0,-0.00012674089521169662,-0.0010061287321150303,0.00011946120503125712,-7.442641071975231e-05,-0.0015442707808688283,0.00040201807860285044,-0.18231730163097382,-0.33599618077278137,0.06473946571350098,0.00011545913730515167,0.00039359484799206257,2.7532619242265355e-06,0.00016873198910616338,3.6633431911468506,10.0,0.0,0.0,0.0,0.0,0.0,32.766,32.766,1.3900000000000001,32.766,32.766,2023.5076904296875,809.5188598632812,29.48025131225586,,False,
1783648140.4474034,2026-07-09T18:49:00,10968,20260709_184855,,,,,,ground_idle,,,,,,,,,False,-0.006226797122508287,-0.0035044029355049133,0.9987223148345947,0.07013534754514694,0.26411423087120056,0.10138686746358871,-2.0,-1.0,65.0,0.0,0.0,-0.00012674089521169662,-0.0010061287321150303,0.00011946120503125712,-7.442641071975231e-05,-0.0015442707808688283,0.00040201807860285044,-0.18231730163097382,-0.33599618077278137,0.06473946571350098,0.00011545913730515167,0.00039359484799206257,2.7532619242265355e-06,0.00016873198910616338,3.6633431911468506,10.0,0.0,0.0,0.0,0.0,0.0,32.766,32.766,1.3900000000000001,32.766,32.766,2023.5076904296875,809.5188598632812,29.48025131225586,,False,
1783648140.4575672,2026-07-09T18:49:00,10978,20260709_184855,,,,,,ground_idle,,,,,,,,,False,-0.004878234583884478,-0.004413431044667959,0.9974927306175232,-0.14792703092098236,-0.08569995313882828,0.028338856995105743,3.0,1.0,42.0,0.0,0.0,-0.000123852543765679,-0.0012476451229304075,0.0001302196178585291,-0.00010279543494107202,-0.002414524555206299,0.0003206820983905345,-0.17462922632694244,-0.33769404888153076,0.06138350069522858,0.00011545913730515167,0.00039359484799206257,2.7532619242265355e-06,0.00016873198910616338,3.6633431911468506,10.0,0.0,0.0,0.0,0.0,0.0,32.766,32.766,1.3900000000000001,32.766,32.766,2023.5076904296875,809.5188598632812,29.48025131225586,,False,
1783648140.467727,2026-07-09T18:49:00,10988,20260709_184855,,,,,,ground_idle,,,,,,,,,False,-0.004647713154554367,-0.0038938201032578945,0.9994522333145142,0.12142860889434814,0.09050625562667847,0.046773530542850494,-4.0,-1.0,50.0,0.0,0.0,-0.000123852543765679,-0.0012476451229304075,0.0001302196178585291,-0.00010279543494107202,-0.002414524555206299,0.0003206820983905345,-0.17462922632694244,-0.33769404888153076,0.06138350069522858,0.00014243449550122023,0.00024311791639775038,4.227492354402784e-06,0.0002177288697566837,3.6633431911468506,10.0,0.0,0.0,0.0,0.0,0.0,32.766,32.766,1.374,32.766,32.766,2023.5076904296875,809.5188598632812,29.48025131225586,,False,
1783648140.4778836,2026-07-09T18:49:00,10998,20260709_184855,,,,,,ground_idle,,,,,,,,,False,-0.005645104218274355,-0.004158570431172848,1.0004962682724,-0.07183589786291122,0.13944442570209503,-0.0037353571970015764,-1.0,0.0,73.0,0.0,0.0,-0.00012407207395881414,-0.001003502868115902,8.224198245443404e-05,0.00010000100155593827,-0.0009831093484535813,-0.0002614004770293832,-0.18685205280780792,-0.3383394479751587,0.06293565034866333,0.00014243449550122023,0.00024311791639775038,4.227492354402784e-06,0.0002177288697566837,3.6633431911468506,10.0,0.0,0.0,0.0,0.0,0.0,32.766,32.766,1.374,32.766,32.766,2023.5076904296875,809.5188598632812,29.48025131225586,,False,
1783648140.4881854,2026-07-09T18:49:00,11008,20260709_184855,,,,,,ground_idle,,,,,,,,,False,-0.007729534525424242,-0.004164214711636305,1.0009467601776123,-0.08080428093671799,0.07855748385190964,-0.17976516485214233,0.0,-3.0,66.0,0.0,0.0,-0.00012407207395881414,-0.001003502868115902,8.224198245443404e-05,0.00010000100155593827,-0.0009831093484535813,-0.0002614004770293832,-0.18685205280780792,-0.3383394479751587,0.06293565034866333,0.00014243449550122023,0.00024311791639775038,4.227492354402784e-06,0.0002177288697566837,3.6633431911468506,10.0,0.0,0.0,0.0,0.0,0.0,32.766,32.766,1.374,32.766,32.766,2023.5076904296875,809.5188598632812,29.48025131225586,,False,
1783648140.498397,2026-07-09T18:49:00,11018,20260709_184855,,,,,,ground_idle,,,,,,,,,False,-0.0067245205864310265,-0.004010835662484169,0.9994549751281738,-0.08708005398511887,-0.1263589859008789,0.07458159327507019,-3.0,1.0,72.0,0.0,0.0,0.0005992031656205654,-0.0007557677454315126,7.588961307192221e-05,0.0038740760646760464,0.00021655220189131796,-0.0002614031545817852,-0.1965894252061844,-0.3703978359699249,0.06245032325387001,0.00014243449550122023,0.00024311791639775038,4.227492354402784e-06,0.0002177288697566837,3.6633431911468506,10.0,0.0,0.0,0.0,0.0,0.0,32.766,32.766,1.374,32.766,32.766,2023.5076904296875,809.5188598632812,29.48025131225586,,False,
1783648140.5085773,2026-07-09T18:49:00,11031,20260709_184855,,,,,,ground_idle,,,,,,,,,False,-0.006050326395779848,-0.003741346299648285,0.9996497631072998,0.06283042579889297,0.08861251175403595,0.26328757405281067,0.0,0.0,69.0,0.0,0.0,0.0003790232294704765,-1.1881226782861631e-05,4.39960349467583e-05,0.00224476121366024,0.0037524441722780466,-0.00038043566746637225,-0.1965894252061844,-0.3703978359699249,0.06245032325387001,0.00014243449550122023,0.00024311791639775038,4.227492354402784e-06,0.0002177288697566837,3.6633431911468506,10.0,0.0,0.0,0.0,0.0,0.0,32.766,32.766,1.374,32.766,32.766,2023.5076904296875,809.5188598632812,29.48025131225586,,False,
1783648140.5187652,2026-07-09T18:49:00,11038,20260709_184855,,,,,,ground_idle,,,,,,,,,False,-0.005673409905284643,-0.003530289279296994,1.000136375427246,0.0019865932408720255,0.04366884008049965,0.083814337849617,0.0,0.0,69.0,0.0,0.0,0.0003790232294704765,-1.1881226782861631e-05,4.39960349467583e-05,0.00224476121366024,0.0037524441722780466,-0.00038043566746637225,-0.2263203263282776,-0.3575339913368225,0.062077444046735764,4.7417681344086304e-05,-0.0003484356275293976,2.7532423700904474e-06,0.0001687323529040441,3.6633431911468506,10.0,0.0,0.0,0.0,0.0,0.0,32.766,32.766,1.374,32.766,32.766,2023.387451171875,809.5298461914062,29.490886688232422,,False,
1783648140.5289562,2026-07-09T18:49:00,11048,20260709_184855,,,,,,ground_idle,,,,,,,,,False,-0.007410295307636261,-0.003714676946401596,0.999930202960968,-0.05356001481413841,0.1826154589653015,-0.044340092688798904,0.0,0.0,73.0,0.0,0.0,0.0003790232294704765,-1.1881226782861631e-05,4.39960349467583e-05,0.00224476121366024,0.0037524441722780466,-0.00038043566746637225,-0.2263203263282776,-0.3575339913368225,0.062077444046735764,4.7417681344086304e-05,-0.0003484356275293976,2.7532423700904474e-06,0.0001687323529040441,3.6633431911468506,10.0,0.0,0.0,0.0,0.0,0.0,32.766,32.766,1.374,32.766,32.766,2023.387451171875,809.5298461914062,29.490886688232422,,False,
1783648140.539141,2026-07-09T18:49:00,11058,20260709_184855,,,,,,ground_idle,,,,,,,,,False,-0.007347534876316786,-0.003978414926677942,0.9987219572067261,0.16026252508163452,-0.23329541087150574,0.21853207051753998,-4.0,0.0,71.0,0.0,0.0,-0.00012451442307792604,-0.0010241498239338398,4.407516462379135e-05,-0.0004390245012473315,-0.0015722254756838083,-0.00032701832242310047,-0.18430647253990173,-0.3336528539657593,0.0644921287894249,4.7417681344086304e-05,-0.0003484356275293976,2.7532423700904474e-06,0.0001687323529040441,3.6633431911468506,10.0,0.0,0.0,0.0,0.0,0.0,32.766,32.766,1.374,32.766,32.766,2023.387451171875,809.5298461914062,29.490886688232422,,False,
1783648140.549353,2026-07-09T18:49:00,11071,20260709_184855,,,,,,ground_idle,,,,,,,,,False,-0.005855073686689138,-0.0027696758043020964,0.9992314577102661,0.12637768685817719,-0.8039817214012146,-0.1282583773136139,0.0,-1.0,70.0,0.0,0.0,0.00011117889516754076,-8.154467650456354e-06,3.8699188735336065e-05,0.0005097826360724866,0.0034807322081178427,-0.0004904639790765941,-0.18430647253990173,-0.3336528539657593,0.0644921287894249,4.7417681344086304e-05,-0.0003484356275293976,2.7532423700904474e-06,0.0001687323529040441,3.6633431911468506,10.0,0.0,0.0,0.0,0.0,0.0,32.766,32.766,1.374,32.766,32.766,2023.387451171875,809.5298461914062,29.490886688232422,,False,
1783648140.5595217,2026-07-09T18:49:00,11078,20260709_184855,,,,,,ground_idle,,,,,,,,,False,-0.006314883939921856,-0.00357325142249465,1.0002533197402954,0.13867542147636414,-0.01005714014172554,-0.008820576593279839,3.0,2.0,48.0,0.0,0.0,0.00011117889516754076,-8.154467650456354e-06,3.8699188735336065e-05,0.0005097826360724866,0.0034807322081178427,-0.0004904639790765941,-0.2226891666650772,-0.3401893079280853,0.06422064453363419,4.7417681344086304e-05,-0.0003484356275293976,2.7532423700904474e-06,0.0001687323529040441,3.6633431911468506,10.0,0.0,0.0,0.0,0.0,0.0,32.766,32.766,1.374,32.766,32.766,2023.387451171875,809.5298461914062,29.490886688232422,,False,
1783648140.5696828,2026-07-09T18:49:00,11091,20260709_184855,,,,,,ground_idle,,,,,,,,,False,-0.007748525124043226,-0.0040116822347044945,1.0014115571975708,-0.004894376266747713,-0.06030259281396866,0.18106450140476227,1.0,0.0,48.0,0.0,0.0,-0.00038528782897628844,-0.0010159251978620887,1.9961506040999666e-05,-0.0020716574508696795,-0.0017428305000066757,-0.0005278018652461469,-0.2226891666650772,-0.3401893079280853,0.06422064453363419,3.961308902944438e-05,-0.0005002600373700261,4.22748507844517e-06,0.0002177309652324766,3.6633431911468506,10.0,0.0,0.0,0.0,0.0,0.0,32.766,32.766,1.397,32.766,32.766,2023.387451171875,809.5298461914062,29.490886688232422,,False,
1783648140.5798435,2026-07-09T18:49:00,11098,20260709_184855,,,,,,ground_idle,,,,,,,,,False,-0.006884577218443155,-0.005453205201774836,1.0005128383636475,-0.10672932118177414,0.19888781011104584,-0.195323646068573,1.0,-1.0,46.0,0.0,0.0,-0.00038528782897628844,-0.0010159251978620887,1.9961506040999666e-05,-0.0020716574508696795,-0.0017428305000066757,-0.0005278018652461469,-0.18126344680786133,-0.3170868754386902,0.06436870247125626,3.961308902944438e-05,-0.0005002600373700261,4.22748507844517e-06,0.0002177309652324766,3.6633431911468506,10.0,0.0,0.0,0.0,0.0,0.0,32.766,32.766,1.397,32.766,32.766,2023.387451171875,809.5298461914062,29.490886688232422,,False,
1783648140.5900557,2026-07-09T18:49:00,11111,20260709_184855,,,,,,ground_idle,,,,,,,,,False,-0.007150037679821253,-0.004061819054186344,1.0001399517059326,0.02364441193640232,0.013637523166835308,-0.19304445385932922,0.0,0.0,71.0,0.0,0.0,-0.0001533187023596838,-0.001291549764573574,1.0964100511046126e-05,-0.0010580545058473945,-0.0032024343963712454,-0.0004237306129653007,-0.18126344680786133,-0.3170868754386902,0.06436870247125626,3.961308902944438e-05,-0.0005002600373700261,4.22748507844517e-06,0.0002177309652324766,3.6633431911468506,10.0,0.0,0.0,0.0,0.0,0.0,32.766,32.766,1.397,32.766,32.766,2023.387451171875,809.5298461914062,29.490886688232422,,False,
1783648140.6003067,2026-07-09T18:49:00,11118,20260709_184855,,,,,,ground_idle,,,,,,,,,False,-0.006845599971711636,-0.005225935019552708,1.0018731355667114,-0.15208248794078827,0.08128316700458527,-0.09351619333028793,-5.0,-1.0,71.0,0.0,0.0,-0.0001533187023596838,-0.001291549764573574,1.0964100511046126e-05,-0.0010580545058473945,-0.0032024343963712454,-0.0004237306129653007,-0.172556534409523,-0.32653212547302246,0.06326129287481308,3.961308902944438e-05,-0.0005002600373700261,4.22748507844517e-06,0.0002177309652324766,3.6633431911468506,10.0,0.0,0.0,0.0,0.0,0.0,32.766,32.766,1.397,32.766,32.766,2023.387451171875,809.5298461914062,29.490886688232422,,False,
1783648140.6104634,2026-07-09T18:49:00,11132,20260709_184855,,,,,,ground_idle,,,,,,,,,False,-0.006551982834935188,-0.004373953677713871,1.0000486373901367,0.04657372087240219,-0.1636321246623993,-0.009091022424399853,1.0,1.0,72.0,0.0,0.0,-0.00015235137834679335,-0.0002541680296417326,8.120544407574926e-06,-0.001221291720867157,0.0017666782950982451,-0.0001644939329707995,-0.21521133184432983,-0.32646048069000244,0.06257535517215729,3.961308902944438e-05,-0.0005002600373700261,4.22748507844517e-06,0.0002177309652324766,3.6633431911468506,10.0,0.0,0.0,0.0,0.0,0.0,32.766,32.766,1.397,32.766,32.766,2023.387451171875,809.5298461914062,29.490886688232422,,False,
1783648140.6206267,2026-07-09T18:49:00,11138,20260709_184855,,,,,,ground_idle,,,,,,,,,False,-0.005525090731680393,-0.0031959402840584517,1.0018290281295776,-0.29273486137390137,0.16244736313819885,0.34843140840530396,3.0,1.0,47.0,0.0,0.0,-0.00015235137834679335,-0.0002541680296417326,8.120544407574926e-06,-0.001221291720867157,0.0017666782950982451,-0.0001644939329707995,-0.21521133184432983,-0.32646048069000244,0.06257535517215729,8.190428161469754e-06,-0.00013682061398867518,2.753250328169088e-06,0.00016873197455424815,3.6633431911468506,10.0,0.0,0.0,0.0,0.0,0.0,32.766,32.766,1.397,0.392,32.766,2023.5240478515625,809.5177001953125,29.495445251464844,,False,
1783648140.6307845,2026-07-09T18:49:00,11152,20260709_184855,,,,,,ground_idle,,,,,,,,,False,-0.005574854556471109,-0.0020497068762779236,1.001149296760559,-0.13624437153339386,0.23078757524490356,-0.11212360113859177,0.0,-1.0,71.0,0.0,0.0,-0.00013923288497608155,-0.0010015526786446571,8.83403390616877e-06,-0.001025464734993875,-0.0019403196638450027,7.969303987920284e-05,-0.18712715804576874,-0.3286792039871216,0.06456182897090912,8.190428161469754e-06,-0.00013682061398867518,2.753250328169088e-06,0.00016873197455424815,3.6633431911468506,10.0,0.0,0.0,0.0,0.0,0.0,32.766,32.766,1.397,0.392,32.766,2023.5240478515625,809.5177001953125,29.495445251464844,,False,
1783648140.6409445,2026-07-09T18:49:00,11158,20260709_184855,,,,,,ground_idle,,,,,,,,,False,-0.0063460152596235275,-0.004511192906647921,1.0008443593978882,-0.03872200474143028,0.021432479843497276,0.17193621397018433,3.0,0.0,75.0,0.0,0.0,-0.00013923288497608155,-0.0010015526786446571,8.83403390616877e-06,-0.001025464734993875,-0.0019403196638450027,7.969303987920284e-05,-0.18712715804576874,-0.3286792039871216,0.06456182897090912,8.190428161469754e-06,-0.00013682061398867518,2.753250328169088e-06,0.00016873197455424815,3.6633431911468506,10.0,0.0,0.0,0.0,0.0,0.0,32.766,32.766,1.397,0.392,32.766,2023.5240478515625,809.5177001953125,29.495445251464844,,False,
1783648140.6512337,2026-07-09T18:49:00,11172,20260709_184855,,,,,,ground_idle,,,,,,,,,False,-0.0060142348520457745,-0.0027950434014201164,0.9996466636657715,-0.06707000732421875,0.013097603805363178,-0.11975958198308945,-5.0,1.0,72.0,0.0,0.0,-0.00038606548332609236,-0.0005087351892143488,2.1866926545044407e-05,-0.0022091700229793787,0.0008184196776710451,0.00032571691554039717,-0.21096575260162354,-0.3196848928928375,0.06413573771715164,8.190428161469754e-06,-0.00013682061398867518,2.753250328169088e-06,0.00016873197455424815,3.6633431911468506,10.0,0.0,0.0,0.0,0.0,0.0,32.766,32.766,1.397,0.392,32.766,2023.5240478515625,809.5177001953125,29.495445251464844,,False,
1783648140.6613927,2026-07-09T18:49:00,11184,20260709_184855,,,,,,ground_idle,,,,,,,,,False,-0.006571068894118071,-0.0033214872237294912,0.9985709190368652,0.137907013297081,0.08276891708374023,0.05387163162231445,0.0,0.0,45.0,0.0,0.0,-0.00038606548332609236,-0.0005087351892143488,2.1866926545044407e-05,-0.0022091700229793787,0.0008184196776710451,0.00032571691554039717,-0.21096575260162354,-0.3196848928928375,0.06413573771715164,2.4566365027567372e-05,0.00020491928444243968,4.227505996823311e-06,0.0002177301503252238,3.6633431911468506,10.0,0.0,0.0,0.0,0.0,0.0,32.766,32.766,1.397,0.392,32.766,2023.5240478515625,809.5177001953125,29.495445251464844,,False,
1783648140.6715522,2026-07-09T18:49:00,11192,20260709_184855,,,,,,ground_idle,,,,,,,,,False,-0.005143785383552313,-0.0027139494195580482,1.0004401206970215,-0.1087002232670784,0.226610466837883,-0.1518862396478653,2.0,0.0,48.0,0.0,0.0,-0.0004017662722617388,-0.0010146736167371273,1.5989156963769346e-05,-0.0021998328156769276,-0.0017192860832437873,7.283279410330579e-05,-0.1878335177898407,-0.3205556869506836,0.06283064186573029,2.4566365027567372e-05,0.00020491928444243968,4.227505996823311e-06,0.0002177301503252238,3.6633431911468506,10.0,0.0,0.0,0.0,0.0,0.0,32.766,32.766,32.766,0.392,32.766,2023.5240478515625,809.5177001953125,29.495445251464844,,False,
1783648140.681721,2026-07-09T18:49:00,11198,20260709_184855,,,,,,ground_idle,,,,,,,,,False,-0.005711933597922325,-0.004932797513902187,1.00210702419281,0.22056543827056885,-0.09569908678531647,0.31209710240364075,0.0,0.0,49.0,0.0,0.0,-0.0004017662722617388,-0.0010146736167371273,1.5989156963769346e-05,-0.0021998328156769276,-0.0017192860832437873,7.283279410330579e-05,-0.1878335177898407,-0.3205556869506836,0.06283064186573029,2.4566365027567372e-05,0.00020491928444243968,4.227505996823311e-06,0.0002177301503252238,3.6633431911468506,10.0,0.0,0.0,0.0,0.0,0.0,32.766,32.766,32.766,0.392,32.766,2023.5240478515625,809.5177001953125,29.495445251464844,,False,
1783648140.6918795,2026-07-09T18:49:00,11212,20260709_184855,,,,,,ground_idle,,,,,,,,,False,-0.005118599161505699,-0.0026330610271543264,1.0002548694610596,0.04536457359790802,0.012810468673706055,-0.15248346328735352,3.0,1.0,63.0,0.0,0.0,-0.0006834139348939061,-0.001819287659600377,1.800565041776281e-05,-0.0033484662417322397,-0.005668987985700369,0.00035708173527382314,-0.15764735639095306,-0.30975472927093506,0.06308464705944061,2.4566365027567372e-05,0.00020491928444243968,4.227505996823311e-06,0.0002177301503252238,3.6633431911468506,10.0,0.0,0.0,0.0,0.0,0.0,32.766,32.766,32.766,0.392,32.766,2023.5240478515625,809.5177001953125,29.495445251464844,,False,
1783648140.7020772,2026-07-09T18:49:00,11218,20260709_184855,,,,,,ground_idle,,,,,,,,,False,-0.005737782921642065,-0.003224026644602418,1.0015009641647339,0.2068266123533249,0.0920473113656044,0.012608506716787815,-8.0,-6.0,70.0,0.0,0.0,-0.0006834139348939061,-0.001819287659600377,1.800565041776281e-05,-0.0033484662417322397,-0.005668987985700369,0.00035708173527382314,-0.15764735639095306,-0.30975472927093506,0.06308464705944061,2.4566365027567372e-05,0.00020491928444243968,4.227505996823311e-06,0.0002177301503252238,3.6633431911468506,10.0,0.0,0.0,0.0,0.0,0.0,32.766,32.766,32.766,0.392,32.766,2023.5240478515625,809.5177001953125,29.495445251464844,,False,
1783648140.712291,2026-07-09T18:49:00,11234,20260709_184855,,,,,,ground_idle,,,,,,,,,False,-0.007276507094502449,-0.004461941309273243,1.0010993480682373,-0.10773919522762299,-0.24301640689373016,0.28369230031967163,3.0,4.0,69.0,0.0,0.0,-0.00015481404261663556,-0.0005087103927507997,4.225379598210566e-05,-0.0007285065948963165,0.0009489345829933882,0.0006289296434260905,-0.20529304444789886,-0.3293304145336151,0.061614565551280975,4.921292565995827e-05,0.0006744675920344889,2.75322827292257e-06,0.00016873108688741922,3.6633431911468506,10.0,0.0,0.0,0.0,0.0,0.0,32.766,32.766,32.766,0.392,32.766,2023.5240478515625,809.5177001953125,29.495445251464844,,False,
1783648140.722449,2026-07-09T18:49:00,11238,20260709_184855,,,,,,ground_idle,,,,,,,,,False,-0.006031793542206287,-0.0031278098467737436,0.9996365904808044,-0.08642978221178055,-0.23115530610084534,-0.060819774866104126,1.0,0.0,46.0,0.0,0.0,-0.00015481404261663556,-0.0005087103927507997,4.225379598210566e-05,-0.0007285065948963165,0.0009489345829933882,0.0006289296434260905,-0.20529304444789886,-0.3293304145336151,0.061614565551280975,4.921292565995827e-05,0.0006744675920344889,2.75322827292257e-06,0.00016873108688741922,3.6633431911468506,10.0,0.0,0.0,0.0,0.0,0.0,32.766,32.766,32.766,32.766,32.766,2023.469482421875,809.5222778320312,29.502492904663086,,False,
1783648140.7326062,2026-07-09T18:49:00,11252,20260709_184855,,,,,,ground_idle,,,,,,,,,False,-0.004144457634538412,-0.003253002418205142,1.0008286237716675,-0.10205383598804474,0.3316017687320709,0.23059847950935364,0.0,0.0,71.0,0.0,0.0,-0.0001643016148591414,-0.0007722610607743263,5.588270869338885e-05,-0.0007303080055862665,-0.0003990940749645233,0.0006537223816849291,-0.19450649619102478,-0.32591375708580017,0.06389360129833221,4.921292565995827e-05,0.0006744675920344889,2.75322827292257e-06,0.00016873108688741922,3.6633431911468506,10.0,0.0,0.0,0.0,0.0,0.0,32.766,32.766,32.766,32.766,32.766,2023.469482421875,809.5222778320312,29.502492904663086,,False,
1783648140.742766,2026-07-09T18:49:00,11258,20260709_184855,,,,,,ground_idle,,,,,,,,,False,-0.006219137459993362,-0.003925879020243883,1.0009369850158691,0.23521150648593903,-0.1038273498415947,0.2545654773712158,0.0,0.0,68.0,0.0,0.0,-0.0001643016148591414,-0.0007722610607743263,5.588270869338885e-05,-0.0007303080055862665,-0.0003990940749645233,0.0006537223816849291,-0.19450649619102478,-0.32591375708580017,0.06389360129833221,4.921292565995827e-05,0.0006744675920344889,2.75322827292257e-06,0.00016873108688741922,3.6633431911468506,10.0,0.0,0.0,0.0,0.0,0.0,32.766,32.766,32.766,32.766,32.766,2023.469482421875,809.5222778320312,29.502492904663086,,False,
1783648140.7529337,2026-07-09T18:49:00,11272,20260709_184855,,,,,,ground_idle,,,,,,,,,False,-0.006686655338853598,-0.004085004795342684,1.0013172626495361,-0.2029787302017212,-0.12004177272319794,-0.06995973736047745,-2.0,0.0,67.0,0.0,0.0,-0.00016828204388730228,-0.00021193678549025208,7.144909613998607e-05,-0.0006509327213279903,0.0024135673884302378,0.0008741183555684984,-0.21550816297531128,-0.32536959648132324,0.06421767920255661,4.921292565995827e-05,0.0006744675920344889,2.75322827292257e-06,0.00016873108688741922,3.6633431911468506,10.0,0.0,0.0,0.0,0.0,0.0,32.766,32.766,32.766,32.766,32.766,2023.469482421875,809.5222778320312,29.502492904663086,,False,
1783648140.7633393,2026-07-09T18:49:00,11285,20260709_184855,,,,,,ground_idle,,,,,,,,,False,-0.007947246544063091,-0.005760692059993744,1.0004444122314453,0.1942514181137085,-0.2319236397743225,0.33550533652305603,4.0,0.0,50.0,0.0,0.0,-0.00016828204388730228,-0.00021193678549025208,7.144909613998607e-05,-0.0006509327213279903,0.0024135673884302378,0.0008741183555684984,-0.21550816297531128,-0.32536959648132324,0.06421767920255661,8.763717778492719e-05,0.0010202095145359635,4.227482804708416e-06,0.00021772993204649538,3.6633431911468506,10.0,0.0,0.0,0.0,0.0,0.0,32.766,32.766,32.766,32.766,32.766,2023.469482421875,809.5222778320312,29.502492904663086,,False,
1783648140.7735453,2026-07-09T18:49:00,11292,20260709_184855,,,,,,ground_idle,,,,,,,,,False,-0.009366597980260849,-0.003306979313492775,1.0000784397125244,0.024041922762989998,0.22892950475215912,-0.05841434746980667,-1.0,0.0,44.0,0.0,0.0,-0.00016700875130482018,-0.001021495321765542,5.612305540125817e-05,-0.0009624729282222688,-0.0019458704628050327,0.0008722569327801466,-0.18380463123321533,-0.32359960675239563,0.06701071560382843,8.763717778492719e-05,0.0010202095145359635,4.227482804708416e-06,0.00021772993204649538,3.6633431911468506,10.0,0.0,0.0,0.0,0.0,0.0,32.766,32.766,1.408,32.766,32.766,2023.469482421875,809.5222778320312,29.502492904663086,,False,
1783648140.7837145,2026-07-09T18:49:00,11298,20260709_184855,,,,,,ground_idle,,,,,,,,,False,-0.008105932734906673,-0.002220948226749897,1.0027858018875122,-0.2986046373844147,-0.2282431572675705,-0.07360000908374786,0.0,0.0,46.0,0.0,0.0,-0.00016700875130482018,-0.001021495321765542,5.612305540125817e-05,-0.0009624729282222688,-0.0019458704628050327,0.0008722569327801466,-0.18380463123321533,-0.32359960675239563,0.06701071560382843,8.763717778492719e-05,0.0010202095145359635,4.227482804708416e-06,0.00021772993204649538,3.6633431911468506,10.0,0.0,0.0,0.0,0.0,0.0,32.766,32.766,1.408,32.766,32.766,2023.469482421875,809.5222778320312,29.502492904663086,,False,
1783648140.7938812,2026-07-09T18:49:00,11312,20260709_184855,,,,,,ground_idle,,,,,,,,,False,-0.006706297863274813,-0.0032056511845439672,0.999936580657959,0.17489904165267944,0.45573732256889343,0.017821697518229485,1.0,1.0,68.0,0.0,0.0,-0.0004441609780769795,-0.0013120898511260748,7.491187716368586e-05,-0.0027092439122498035,-0.003071977524086833,0.0011544546578079462,-0.17637453973293304,-0.31204238533973694,0.06636083871126175,8.763717778492719e-05,0.0010202095145359635,4.227482804708416e-06,0.00021772993204649538,3.6633431911468506,10.0,0.0,0.0,0.0,0.0,0.0,32.766,32.766,1.408,32.766,32.766,2023.469482421875,809.5222778320312,29.502492904663086,,False,
1783648140.8040674,2026-07-09T18:49:00,11318,20260709_184855,,,,,,ground_idle,,,,,,,,,False,-0.003498053876683116,-0.0033723865635693073,1.0013715028762817,-0.18238189816474915,0.2317463457584381,-0.0039338343776762486,-5.0,-2.0,72.0,0.0,0.0,-0.0004441609780769795,-0.0013120898511260748,7.491187716368586e-05,-0.0027092439122498035,-0.003071977524086833,0.0011544546578079462,-0.17637453973293304,-0.31204238533973694,0.06636083871126175,8.763717778492719e-05,0.0010202095145359635,4.227482804708416e-06,0.00021772993204649538,3.6633431911468506,10.0,0.0,0.0,0.0,0.0,0.0,32.766,32.766,1.408,32.766,32.766,2023.469482421875,809.5222778320312,29.502492904663086,,False,
1783648140.8143795,2026-07-09T18:49:00,11335,20260709_184855,,,,,,ground_idle,,,,,,,,,False,-0.004950280766934156,-0.0042730579152703285,1.000003457069397,0.010717305354773998,0.2608810365200043,0.18594278395175934,0.0,0.0,68.0,0.0,0.0,0.00011260357860010117,0.00010930543066933751,6.466457125497982e-05,0.00026505239657126367,0.003914705011993647,0.001086152740754187,-0.23098601400852203,-0.33652976155281067,0.06524526327848434,6.466457125497982e-05,0.0011034910567104816,2.4760547603364103e-06,0.0001677316176937893,3.6633431911468506,10.0,0.0,0.0,0.0,0.0,0.0,32.766,32.766,1.408,32.766,32.766,2023.469482421875,809.5222778320312,29.502492904663086,,False,
1783648140.824564,2026-07-09T18:49:00,11347,20260709_184855,,,,,,ground_idle,,,,,,,,,False,-0.008354293182492256,-0.005487265530973673,1.0023365020751953,0.24318797886371613,0.1319146454334259,-0.08008722215890884,4.0,1.0,47.0,0.0,0.0,0.00011260357860010117,0.00010930543066933751,6.466457125497982e-05,0.00026505239657126367,0.003914705011993647,0.001086152740754187,-0.23098601400852203,-0.33652976155281067,0.06524526327848434,6.466457125497982e-05,0.0011034910567104816,2.4760547603364103e-06,0.0001677316176937893,3.6633431911468506,10.0,0.0,0.0,0.0,0.0,0.0,32.766,32.766,1.408,32.766,32.766,2023.4146728515625,809.527587890625,29.51106071472168,,False,
1783648140.834733,2026-07-09T18:49:00,11357,20260709_184855,,,,,,ground_idle,,,,,,,,,False,-0.007572160568088293,-0.004462930839508772,1.0012874603271484,-0.2221028357744217,-0.38309282064437866,0.08453377336263657,0.0,0.0,68.0,0.0,0.0,-0.00018220719357486814,-0.0010579722002148628,9.498660801909864e-05,-0.0010368936927989125,-0.0022118284832686186,0.0014070695033296943,-0.1850517988204956,-0.3270399570465088,0.06629820168018341,6.466457125497982e-05,0.0011034910567104816,2.4760547603364103e-06,0.0001677316176937893,3.6633431911468506,10.0,0.0,0.0,0.0,0.0,0.0,32.766,32.766,1.408,32.766,32.766,2023.4146728515625,809.527587890625,29.51106071472168,,False,
1783648140.8448935,2026-07-09T18:49:00,11367,20260709_184855,,,,,,ground_idle,,,,,,,,,False,-0.00726927537471056,-0.0037879222072660923,0.9994655251502991,-0.3136964738368988,-0.05803275853395462,0.018700532615184784,1.0,1.0,64.0,0.0,0.0,-0.00018220719357486814,-0.0010579722002148628,9.498660801909864e-05,-0.0010368936927989125,-0.0022118284832686186,0.0014070695033296943,-0.1850517988204956,-0.3270399570465088,0.06629820168018341,6.466457125497982e-05,0.0011034910567104816,2.4760547603364103e-06,0.0001677316176937893,3.6633431911468506,10.0,0.0,0.0,0.0,0.0,0.0,32.766,32.766,1.408,32.766,32.766,2023.4146728515625,809.527587890625,29.51106071472168,,False,
1783648140.8552613,2026-07-09T18:49:00,11377,20260709_184855,,,,,,ground_idle,,,,,,,,,False,-0.006334269884973764,-0.004853948950767517,1.0000731945037842,0.10455051064491272,0.028096072375774384,0.02488585002720356,-3.0,-1.0,71.0,0.0,0.0,-0.00018616660963743925,-0.00045770383439958096,0.00013110192958265543,-0.0012640533968806267,0.0006632604636251926,0.0017038112273439765,-0.20973940193653107,-0.3227212429046631,0.0640929713845253,6.466457125497982e-05,0.0011034910567104816,2.4760547603364103e-06,0.0001677316176937893,3.6633431911468506,10.0,0.0,0.0,0.0,0.0,0.0,32.766,32.766,1.408,32.766,32.766,2023.4146728515625,809.527587890625,29.51106071472168,,False,
1783648140.8654413,2026-07-09T18:49:00,11386,20260709_184855,,,,,,ground_idle,,,,,,,,,False,-0.006334269884973764,-0.004853948950767517,1.0000731945037842,0.10455051064491272,0.028096072375774384,0.02488585002720356,1.0,0.0,64.0,0.0,0.0,-0.00018616660963743925,-0.00045770383439958096,0.00013110192958265543,-0.0012640533968806267,0.0006632604636251926,0.0017038112273439765,-0.20973940193653107,-0.3227212429046631,0.0640929713845253,0.00014862127136439085,0.0016687273746356368,4.227507815812714e-06,0.00021772967011202127,3.6633431911468506,10.0,0.0,0.0,0.0,0.0,0.0,32.766,32.766,1.395,32.766,32.766,2023.4146728515625,809.527587890625,29.51106071472168,,False,
1783648140.8756104,2026-07-09T18:49:00,11398,20260709_184855,,,,,,ground_idle,,,,,,,,,False,-0.005177040118724108,-0.0032118402887135744,1.0020004510879517,-0.13176113367080688,-0.29571810364723206,-0.0721336156129837,2.0,-1.0,46.0,0.0,0.0,-0.00045686401426792145,-0.0007362696924246848,9.441373549634591e-05,-0.0026569203473627567,-0.0007869138498790562,0.001346122706308961,-0.20036260783672333,-0.31249579787254333,0.06595172733068466,0.00014862127136439085,0.0016687273746356368,4.227507815812714e-06,0.00021772967011202127,3.6633431911468506,10.0,0.0,0.0,0.0,0.0,0.0,32.766,32.766,1.395,32.766,32.766,2023.4146728515625,809.527587890625,29.51106071472168,,False,
1783648140.8857613,2026-07-09T18:49:00,11408,20260709_184855,,,,,,ground_idle,,,,,,,,,False,-0.007976665161550045,-0.0045270672999322414,1.001291275024414,0.16199587285518646,0.4101186692714691,0.1597011238336563,-1.0,0.0,69.0,0.0,0.0,-0.00045686401426792145,-0.0007362696924246848,9.441373549634591e-05,-0.0026569203473627567,-0.0007869138498790562,0.001346122706308961,-0.20036260783672333,-0.31249579787254333,0.06595172733068466,0.00014862127136439085,0.0016687273746356368,4.227507815812714e-06,0.00021772967011202127,3.6633431911468506,10.0,0.0,0.0,0.0,0.0,0.0,32.766,32.766,1.395,32.766,32.766,2023.4146728515625,809.527587890625,29.51106071472168,,False,
1783648140.8959224,2026-07-09T18:49:00,11417,20260709_184855,,,,,,ground_idle,,,,,,,,,False,-0.007150449324399233,-0.004790851846337318,0.9989656805992126,-0.03544436767697334,0.2682552635669708,-0.023403747007250786,-1.0,0.0,69.0,0.0,0.0,-0.00016915144806262106,-0.0009913482936099172,0.0001268151099793613,-0.0011539410334080458,-0.00179200223647058,0.0017150095663964748,-0.19262976944446564,-0.321326345205307,0.06596626341342926,0.00014862127136439085,0.0016687273746356368,4.227507815812714e-06,0.00021772967011202127,3.6633431911468506,10.0,0.0,0.0,0.0,0.0,0.0,32.766,32.766,1.395,32.766,32.766,2023.4146728515625,809.527587890625,29.51106071472168,,False,
1783648140.906109,2026-07-09T18:49:00,11428,20260709_184855,,,,,,ground_idle,,,,,,,,,False,-0.006887303665280342,-0.005602146964520216,0.9986774921417236,0.323336660861969,0.09106597304344177,0.08393551409244537,-1.0,0.0,71.0,0.0,0.0,-0.00016915144806262106,-0.0009913482936099172,0.0001268151099793613,-0.0011539410334080458,-0.00179200223647058,0.0017150095663964748,-0.19262976944446564,-0.321326345205307,0.06596626341342926,0.00014862127136439085,0.0016687273746356368,4.227507815812714e-06,0.00021772967011202127,3.6633431911468506,10.0,0.0,0.0,0.0,0.0,0.0,32.766,32.766,1.395,32.766,32.766,2023.4146728515625,809.527587890625,29.51106071472168,,False,
1783648140.9162676,2026-07-09T18:49:00,11437,20260709_184855,,,,,,arming,,,,,,,,,False,-0.0061647407710552216,-0.0049626994878053665,1.0013556480407715,0.35908809304237366,-0.031263504177331924,-0.06441792845726013,-1.0,0.0,71.0,0.0,0.0,-0.00017537338135298342,-0.0007311080698855221,9.859324200078845e-05,-0.0013607427245005965,-0.0006350352196022868,0.0013913545990362763,-0.20134466886520386,-0.32571765780448914,0.06811933219432831,9.859324200078845e-05,0.0013813604600727558,2.47605976255727e-06,0.00016773089009802788,3.6633431911468506,10.0,0.0,0.0,0.0,0.0,0.0,32.766,32.766,1.395,32.766,32.766,2023.4146728515625,809.527587890625,29.51106071472168,,False,
1783648140.9264593,2026-07-09T18:49:00,11448,20260709_184855,,,,,,arming,,,,,,,,,False,-0.005036444868892431,-0.002755931578576565,1.0028232336044312,0.19995446503162384,-0.32804134488105774,5.3813462727703154e-05,1.0,-1.0,72.0,0.0,0.0,-0.00017537338135298342,-0.0007311080698855221,9.859324200078845e-05,-0.0013607427245005965,-0.0006350352196022868,0.0013913545990362763,-0.20134466886520386,-0.32571765780448914,0.06811933219432831,9.859324200078845e-05,0.0013813604600727558,2.47605976255727e-06,0.00016773089009802788,3.6633431911468506,10.0,0.0,0.0,0.0,0.0,0.0,32.766,32.766,1.395,32.766,32.766,2023.34375,809.5337524414062,29.518966674804688,,False,
1783648140.9366527,2026-07-09T18:49:00,11458,20260709_184855,,,,,,arming,,,,,,,,,False,-0.005969157908111811,-0.002675490453839302,1.002478003501892,-0.1283198744058609,-0.42128586769104004,-0.04285752400755882,0.0,0.0,69.0,0.0,0.0,-0.00016624752606730908,-0.000993399298749864,0.00012760540994349867,-0.0012494140537455678,-0.0020845909602940083,0.0015453886007890105,-0.18797731399536133,-0.3273480236530304,0.06779475510120392,9.859324200078845e-05,0.0013813604600727558,2.47605976255727e-06,0.00016773089009802788,3.6633431911468506,10.0,0.0,0.0,0.0,0.0,0.0,32.766,32.766,1.395,32.766,32.766,2023.34375,809.5337524414062,29.518966674804688,,False,
1783648140.9468224,2026-07-09T18:49:00,11468,20260709_184855,,,,,,arming,,,,,,,,,False,-0.006192211993038654,-0.0037692494224756956,1.0003738403320312,0.15349137783050537,0.20956549048423767,-0.06571666151285172,-4.0,-2.0,76.0,0.0,0.0,-0.00016624752606730908,-0.000993399298749864,0.00012760540994349867,-0.0012494140537455678,-0.0020845909602940083,0.0015453886007890105,-0.18797731399536133,-0.3273480236530304,0.06779475510120392,9.859324200078845e-05,0.0013813604600727558,2.47605976255727e-06,0.00016773089009802788,3.6633431911468506,10.0,0.0,0.0,0.0,0.0,0.0,32.766,32.766,1.395,32.766,32.766,2023.34375,809.5337524414062,29.518966674804688,,False,
1783648140.9570487,2026-07-09T18:49:00,11478,20260709_184855,,,,,,arming,,,,,,,,,False,-0.005122421775013208,-0.005421752575784922,1.0004990100860596,-0.03006754256784916,0.15427114069461823,-0.06578639149665833,4.0,3.0,69.0,0.0,0.0,0.000385243387427181,0.00010480615310370922,0.0001666785537963733,0.0014971389900892973,0.0035103722475469112,0.002044441644102335,-0.22837039828300476,-0.3454552888870239,0.06849218904972076,9.859324200078845e-05,0.0013813604600727558,2.47605976255727e-06,0.00016773089009802788,3.6633431911468506,10.0,0.0,0.0,0.0,0.0,0.0,32.766,32.766,1.395,32.766,32.766,2023.34375,809.5337524414062,29.518966674804688,,False,
1783648140.9672499,2026-07-09T18:49:00,11488,20260709_184855,,,,,,arming,,,,,,,,,False,-0.006269118282943964,-0.004028268624097109,1.000736951828003,-0.1459849327802658,0.06460313498973846,-0.022623565047979355,0.0,0.0,45.0,0.0,0.0,0.000385243387427181,0.00010480615310370922,0.0001666785537963733,0.0014971389900892973,0.0035103722475469112,0.002044441644102335,-0.22837039828300476,-0.3454552888870239,0.06849218904972076,0.00019889262330252677,0.0021071815863251686,4.2275196392438374e-06,0.00021772959735244513,3.6633431911468506,10.0,0.0,7000.0,7000.0,7000.0,7000.0,32.766,32.766,1.3940000000000001,32.766,32.766,2023.34375,809.5337524414062,29.518966674804688,,False,
1783648140.977424,2026-07-09T18:49:00,11498,20260709_184855,,,,,,arming,,,,,,,,,False,-0.004772308748215437,-0.003110526129603386,1.0012249946594238,-0.049471739679574966,-0.09191436320543289,0.20140060782432556,0.0,0.0,50.0,0.0,0.0,-0.00045520593994297087,-0.0010168981971219182,0.00012591651466209441,-0.0024696155451238155,-0.0021773206535726786,0.001685188733972609,-0.1841021031141281,-0.3177044689655304,0.06895117461681366,0.00019889262330252677,0.0021071815863251686,4.2275196392438374e-06,0.00021772959735244513,3.6633431911468506,10.0,0.0,7000.0,7000.0,7000.0,7000.0,32.766,32.766,1.3940000000000001,32.766,32.766,2023.34375,809.5337524414062,29.518966674804688,,False,
1783648140.9876661,2026-07-09T18:49:00,11508,20260709_184855,,,,,,arming,,,,,,,,,False,-0.007813319563865662,-0.0034261555410921574,1.000937581062317,0.0762278363108635,0.30139145255088806,-0.0650254637002945,1.0,0.0,69.0,0.0,0.0,-0.00045520593994297087,-0.0010168981971219182,0.00012591651466209441,-0.0024696155451238155,-0.0021773206535726786,0.001685188733972609,-0.1841021031141281,-0.3177044689655304,0.06895117461681366,0.00019889262330252677,0.0021071815863251686,4.2275196392438374e-06,0.00021772959735244513,3.6633431911468506,10.0,0.0,7000.0,7000.0,7000.0,7000.0,32.766,32.766,1.3940000000000001,32.766,32.766,2023.34375,809.5337524414062,29.518966674804688,,False,
1783648140.997853,2026-07-09T18:49:00,11518,20260709_184855,,,,,,arming,,,,,,,,,False,-0.008216796442866325,-0.0034291718620806932,1.0007762908935547,0.15808340907096863,-0.12262794375419617,-0.03720422834157944,-1.0,0.0,69.0,0.0,0.0,-0.0004623166169039905,-0.0013264025328680873,0.00016089242126327008,-0.002309015952050686,-0.0034811324439942837,0.0019025932997465134,-0.1747244894504547,-0.3194899260997772,0.06935150176286697,0.00019889262330252677,0.0021071815863251686,4.2275196392438374e-06,0.00021772959735244513,3.6633431911468506,10.0,0.0,7000.0,7000.0,7000.0,7000.0,32.766,32.766,1.3940000000000001,32.766,32.766,2023.34375,809.5337524414062,29.518966674804688,,False,
1783648141.008046,2026-07-09T18:49:01,11528,20260709_184855,,,,,,arming,,,,,,,,,False,-0.007092016749083996,-0.004373730160295963,0.9981958866119385,0.15362370014190674,-0.10844837874174118,0.09896343946456909,-4.0,-2.0,72.0,0.0,0.0,-0.0004623166169039905,-0.0013264025328680873,0.00016089242126327008,-0.002309015952050686,-0.0034811324439942837,0.0019025932997465134,-0.1747244894504547,-0.3194899260997772,0.06935150176286697,0.00019889262330252677,0.0021071815863251686,4.2275196392438374e-06,0.00021772959735244513,3.6633431911468506,10.0,0.0,7000.0,7000.0,7000.0,7000.0,32.766,32.766,1.3940000000000001,32.766,32.766,2023.34375,809.5337524414062,29.518966674804688,,False,
1783648141.0182288,2026-07-09T18:49:01,11538,20260709_184855,,,,,,arming,,,,,,,,,False,-0.007433387450873852,-0.004108026623725891,0.998823344707489,-0.2074640989303589,-0.13945233821868896,0.051328144967556,3.0,1.0,46.0,0.0,0.0,0.00012451072689145803,0.00011619974247878417,0.0001246690662810579,0.00028402512543834746,0.0035766144283115864,0.001614473876543343,-0.22741791605949402,-0.34459981322288513,0.07044479995965958,0.0001246690662810579,0.0016303648008033633,2.4760579435678665e-06,0.0001677306863712147,3.6633431911468506,10.0,0.0,7000.0,7000.0,7000.0,7000.0,32.766,32.766,1.3940000000000001,32.766,32.766,2023.4530029296875,809.5237426757812,29.526893615722656,,False,
1783648141.02839,2026-07-09T18:49:01,11548,20260709_184855,,,,,,arming,,,,,,,,,False,-0.0056664892472326756,-0.003177540609613061,1.0013993978500366,0.20299534499645233,0.3158327043056488,-0.11110341548919678,-3.0,-1.0,69.0,0.0,0.0,0.00012451072689145803,0.00011619974247878417,0.0001246690662810579,0.00028402512543834746,0.0035766144283115864,0.001614473876543343,-0.22741791605949402,-0.34459981322288513,0.07044479995965958,0.0001246690662810579,0.0016303648008033633,2.4760579435678665e-06,0.0001677306863712147,3.6633431911468506,10.0,0.0,7000.0,7000.0,7000.0,7000.0,32.766,32.766,1.3940000000000001,32.766,32.766,2023.4530029296875,809.5237426757812,29.526893615722656,,False,
1783648141.0385568,2026-07-09T18:49:01,11558,20260709_184855,,,,,,arming,,,,,,,,,False,-0.007984223775565624,-0.002971468959003687,0.9992420673370361,-0.03400438278913498,0.30844002962112427,-0.04597559943795204,5.0,4.0,69.0,0.0,0.0,0.00012100962339900434,8.923875429900363e-05,0.00015947609790600836,9.275457705371082e-05,0.003192370990291238,0.001428057556040585,-0.22440700232982635,-0.3439122438430786,0.07155301421880722,0.0001246690662810579,0.0016303648008033633,2.4760579435678665e-06,0.0001677306863712147,3.6633431911468506,10.0,0.0,7000.0,7000.0,7000.0,7000.0,32.766,32.766,1.3940000000000001,32.766,32.766,2023.4530029296875,809.5237426757812,29.526893615722656,,False,
1783648141.0487163,2026-07-09T18:49:01,11571,20260709_184855,,,,,,arming,,,,,,,,,False,-0.005882968660444021,-0.001310544554144144,1.0009660720825195,0.20564329624176025,-0.14162370562553406,-0.25197041034698486,-4.0,-3.0,77.0,0.0,0.0,-0.000134610352688469,-0.00019541264919098467,0.00021024959278292954,-0.0011133963707834482,0.0019493059953674674,0.0016172652831301093,-0.22440700232982635,-0.3439122438430786,0.07155301421880722,0.0001246690662810579,0.0016303648008033633,2.4760579435678665e-06,0.0001677306863712147,3.6633431911468506,10.0,0.0,7000.0,7000.0,7000.0,7000.0,32.766,32.766,1.3940000000000001,32.766,32.766,2023.4530029296875,809.5237426757812,29.526893615722656,,False,
1783648141.0588958,2026-07-09T18:49:01,11578,20260709_184855,,,,,,arming,,,,,,,,,False,-0.007468024268746376,-0.002173776039853692,1.0007885694503784,0.17830339074134827,-0.09733957052230835,-0.318380743265152,4.0,0.0,60.0,0.0,0.0,-0.000134610352688469,-0.00019541264919098467,0.00021024959278292954,-0.0011133963707834482,0.0019493059953674674,0.0016172652831301093,-0.21343646943569183,-0.3412508964538574,0.07110492885112762,0.0001246690662810579,0.0016303648008033633,2.4760579435678665e-06,0.0001677306863712147,3.6633431911468506,10.0,0.0,7000.0,7000.0,7000.0,7000.0,32.766,32.766,1.3940000000000001,32.766,32.766,2023.4530029296875,809.5237426757812,29.526893615722656,,False,
1783648141.0691113,2026-07-09T18:49:01,11592,20260709_184855,,,,,,arming,,,,,,,,,False,-0.006282084621489048,-0.005417698062956333,1.0030663013458252,-0.07355057448148727,-0.13302592933177948,-0.2294371873140335,-1.0,1.0,51.0,0.0,0.0,-0.00038151844637468457,-0.0009898612042889,0.00014345149975270033,-0.002439817413687706,-0.0015231770230457187,0.0012997188605368137,-0.18037362396717072,-0.3339639902114868,0.06875187903642654,0.00023325726215261966,0.0016922071808949113,4.2274750740034506e-06,0.00021772786567453295,3.6633431911468506,10.0,0.0,7000.0,7000.0,7000.0,7000.0,32.766,32.766,1.415,32.766,32.766,2023.4530029296875,809.5237426757812,29.526893615722656,,False,
1783648141.0792923,2026-07-09T18:49:01,11598,20260709_184855,,,,,,arming,,,,,,,,,False,-0.006819720380008221,-0.00465940497815609,1.0014541149139404,-0.2781151831150055,-0.00966346263885498,0.08445265889167786,0.0,0.0,53.0,0.0,0.0,-0.00038151844637468457,-0.0009898612042889,0.00014345149975270033,-0.002439817413687706,-0.0015231770230457187,0.0012997188605368137,-0.18037362396717072,-0.3339639902114868,0.06875187903642654,0.00023325726215261966,0.0016922071808949113,4.2274750740034506e-06,0.00021772786567453295,3.6633431911468506,10.0,0.0,7000.0,7000.0,7000.0,7000.0,32.766,32.766,1.415,32.766,32.766,2023.4530029296875,809.5237426757812,29.526893615722656,,False,
1783648141.0894835,2026-07-09T18:49:01,11611,20260709_184855,,,,,,arming,,,,,,,,,False,-0.007387315388768911,-0.00645538279786706,1.0008810758590698,0.031893860548734665,-0.050664566457271576,-0.04873615875840187,-5.0,-2.0,74.0,0.0,0.0,0.00013132109597790986,0.00034254923230037093,0.00017646739433985204,9.274434705730528e-05,0.004443295765668154,0.0016236408846452832,-0.18037362396717072,-0.3339639902114868,0.06875187903642654,0.00023325726215261966,0.0016922071808949113,4.2274750740034506e-06,0.00021772786567453295,3.6633431911468506,10.0,0.0,7000.0,7000.0,7000.0,7000.0,32.766,32.766,1.415,32.766,32.766,2023.4530029296875,809.5237426757812,29.526893615722656,,False,
1783648141.0996473,2026-07-09T18:49:01,11618,20260709_184855,,,,,,arming,,,,,,,,,False,-0.006437059957534075,-0.004723690450191498,0.9987382888793945,0.14714950323104858,0.5572655200958252,0.14054808020591736,3.0,1.0,68.0,0.0,0.0,0.00013132109597790986,0.00034254923230037093,0.00017646739433985204,9.274434705730528e-05,0.004443295765668154,0.0016236408846452832,-0.2307063341140747,-0.34935471415519714,0.06653687357902527,0.00023325726215261966,0.0016922071808949113,4.2274750740034506e-06,0.00021772786567453295,3.6633431911468506,10.0,0.0,7000.0,7000.0,7000.0,7000.0,32.766,32.766,1.415,32.766,32.766,2023.4530029296875,809.5237426757812,29.526893615722656,,False,
1783648141.1098049,2026-07-09T18:49:01,11631,20260709_184855,,,,,,arming,,,,,,,,,False,-0.00759136863052845,-0.002684500999748707,0.9991240501403809,-0.1728019267320633,-0.48403045535087585,0.3985034227371216,-2.0,0.0,71.0,0.0,0.0,-0.00013267008762340993,6.449516513384879e-05,0.00013096057227812707,-0.0012267038691788912,0.0026595338713377714,0.0012483459431678057,-0.2307063341140747,-0.34935471415519714,0.06653687357902527,0.00023325726215261966,0.0016922071808949113,4.2274750740034506e-06,0.00021772786567453295,3.6633431911468506,10.0,0.0,7000.0,7000.0,7000.0,7000.0,32.766,32.766,1.415,32.766,32.766,2023.4530029296875,809.5237426757812,29.526893615722656,,False,
1783648141.1199696,2026-07-09T18:49:01,11638,20260709_184855,,,,,,arming,,,,,,,,,False,-0.006537729408591986,-0.003160943044349551,0.9982327818870544,-0.0677805170416832,0.7771623730659485,0.5088568925857544,5.0,3.0,55.0,0.0,0.0,-0.00013267008762340993,6.449516513384879e-05,0.00013096057227812707,-0.0012267038691788912,0.0026595338713377714,0.0012483459431678057,-0.21692444384098053,-0.3426714241504669,0.0669327825307846,0.0001476349134463817,0.0012445551110431552,2.7532435069588246e-06,0.00016873140702955425,3.642228841781616,10.0,0.0,7000.0,7000.0,7000.0,7000.0,32.766,32.766,1.415,0.382,32.766,2023.40380859375,809.5285034179688,29.536741256713867,,False,
1783648141.130266,2026-07-09T18:49:01,11651,20260709_184855,,,,,,arming,,,,,,,,,False,-0.005033721216022968,-0.002371502574533224,1.0000717639923096,0.2000862956047058,0.08959372341632843,-0.5142208337783813,-4.0,-4.0,75.0,0.0,0.0,0.0001468848204240203,-0.0001966457348316908,0.00017058131925296038,0.00031696201767772436,0.0015504119219258428,0.0013229181058704853,-0.21692444384098053,-0.3426714241504669,0.0669327825307846,0.0001476349134463817,0.0012445551110431552,2.7532435069588246e-06,0.00016873140702955425,3.642228841781616,10.0,0.0,7000.0,7000.0,7000.0,7000.0,32.766,32.766,1.415,0.382,32.766,2023.40380859375,809.5285034179688,29.536741256713867,,False,
1783648141.1404521,2026-07-09T18:49:01,11658,20260709_184855,,,,,,arming,,,,,,,,,False,-0.007336906623095274,0.0009121134644374251,1.0001189708709717,-0.29344427585601807,0.1798759549856186,-1.00095534324646,1.0,2.0,70.0,0.0,0.0,0.0001468848204240203,-0.0001966457348316908,0.00017058131925296038,0.00031696201767772436,0.0015504119219258428,0.0013229181058704853,-0.20879606902599335,-0.35862046480178833,0.07017504423856735,0.0001476349134463817,0.0012445551110431552,2.7532435069588246e-06,0.00016873140702955425,3.642228841781616,10.0,0.0,7000.0,7000.0,7000.0,7000.0,32.766,32.766,1.415,0.382,32.766,2023.40380859375,809.5285034179688,29.536741256713867,,False,
1783648141.1506307,2026-07-09T18:49:01,11672,20260709_184855,,,,,,arming,,,,,,,,,False,-0.0026658056303858757,-0.00653592636808753,1.001632809638977,-0.014833915047347546,0.4690086543560028,-1.541522741317749,-1.0,0.0,77.0,0.0,0.0,-0.00034401356242597103,-0.0002111810608766973,0.00019766729383263737,-0.0019034751458093524,0.0014006842393428087,0.0011411939049139619,-0.20609082281589508,-0.3415374457836151,0.0683305412530899,0.0001476349134463817,0.0012445551110431552,2.7532435069588246e-06,0.00016873140702955425,3.642228841781616,10.0,0.0,7000.0,7000.0,7000.0,7000.0,32.766,32.766,1.415,0.382,32.766,2023.40380859375,809.5285034179688,29.536741256713867,,False,
1783648141.1607955,2026-07-09T18:49:01,11678,20260709_184855,,,,,,arming,,,,,,,,,False,-0.006021211389452219,-0.003820577636361122,0.9987066984176636,-0.03528189659118652,0.7915010452270508,-1.7826696634292603,3.0,-1.0,64.0,0.0,0.0,-0.00034401356242597103,-0.0002111810608766973,0.00019766729383263737,-0.0019034751458093524,0.0014006842393428087,0.0011411939049139619,-0.20609082281589508,-0.3415374457836151,0.0683305412530899,0.0001476349134463817,0.0012445551110431552,2.7532435069588246e-06,0.00016873140702955425,3.642228841781616,10.0,0.0,7000.0,7000.0,7000.0,7000.0,32.766,32.766,1.415,0.382,32.766,2023.40380859375,809.5285034179688,29.536741256713867,,False,
1783648141.1709573,2026-07-09T18:49:01,11692,20260709_184855,,,,,,arming,,,,,,,,,False,-0.008627615869045258,-0.005362828727811575,0.9998041987419128,-0.1732882559299469,0.19036328792572021,-1.3997684717178345,0.0,0.0,45.0,0.0,0.0,-0.00010683939035516232,-0.0009797390084713697,0.00012707074347417802,-0.00045285263331606984,-0.0025785660836845636,0.000553381338249892,-0.1734016388654709,-0.35576894879341125,0.06905481964349747,0.00021141933393664658,0.0011419184738770127,4.227498266118346e-06,0.00021772987383883446,3.642228841781616,10.0,0.0,7000.0,7000.0,7000.0,7000.0,32.766,32.766,32.766,0.382,32.766,2023.40380859375,809.5285034179688,29.536741256713867,,False,
1783648141.1811357,2026-07-09T18:49:01,11698,20260709_184855,,,,,,arming,,,,,,,,,False,-0.005952210631221533,-0.005499695427715778,0.9978963136672974,-0.30815568566322327,0.15164043009281158,-1.2441346645355225,0.0,0.0,63.0,0.0,0.0,-0.00010683939035516232,-0.0009797390084713697,0.00012707074347417802,-0.00045285263331606984,-0.0025785660836845636,0.000553381338249892,-0.1734016388654709,-0.35576894879341125,0.06905481964349747,0.00021141933393664658,0.0011419184738770127,4.227498266118346e-06,0.00021772987383883446,3.642228841781616,10.0,0.0,7000.0,7000.0,7000.0,7000.0,32.766,32.766,32.766,0.382,32.766,2023.40380859375,809.5285034179688,29.536741256713867,,False,
1783648141.1913414,2026-07-09T18:49:01,11712,20260709_184855,,,,,,arming,,,,,,,,,False,-0.005895361304283142,-0.005273249465972185,1.0016398429870605,-0.34361711144447327,-1.0280617475509644,-0.7778671383857727,-4.0,-1.0,76.0,0.0,0.0,0.0001366117357974872,8.219594019465148e-05,0.00014758379256818444,0.0009637764887884259,0.002766075311228633,0.0009727799333631992,-0.2195349484682083,-0.36863425374031067,0.06530313193798065,0.00021141933393664658,0.0011419184738770127,4.227498266118346e-06,0.00021772987383883446,3.642228841781616,10.0,0.0,7000.0,7000.0,7000.0,7000.0,32.766,32.766,32.766,0.382,32.766,2023.40380859375,809.5285034179688,29.536741256713867,,False,
1783648141.2015493,2026-07-09T18:49:01,11718,20260709_184855,,,,,,arming,,,,,,,,,False,-0.003117225831374526,-0.0058785998262465,1.0082248449325562,0.37249433994293213,-0.05383001267910004,-0.0402219258248806,3.0,1.0,65.0,0.0,0.0,0.0001366117357974872,8.219594019465148e-05,0.00014758379256818444,0.0009637764887884259,0.002766075311228633,0.0009727799333631992,-0.2195349484682083,-0.36863425374031067,0.06530313193798065,0.00021141933393664658,0.0011419184738770127,4.227498266118346e-06,0.00021772987383883446,3.642228841781616,10.0,0.0,7000.0,7000.0,7000.0,7000.0,32.766,32.766,32.766,0.382,32.766,2023.40380859375,809.5285034179688,29.536741256713867,,False,
1783648141.211707,2026-07-09T18:49:01,11734,20260709_184855,,,,,,arming,,,,,,,,,False,-0.004291543271392584,-0.0027619265019893646,1.002959132194519,-0.6240283250808716,0.41916874051094055,-0.5903196930885315,-3.0,-2.0,72.0,0.0,0.0,0.0003791432245634496,6.679676880594343e-05,0.00010783884499687701,0.0024574939161539078,0.002368317451328039,0.001195486867800355,-0.21640458703041077,-0.37057408690452576,0.06285613775253296,0.00010783884499687701,0.001220301608555019,2.4760543055890594e-06,0.0001677322288742289,3.642228841781616,10.0,0.0,7000.0,7000.0,7000.0,7000.0,32.766,32.766,32.766,0.382,32.766,2023.40380859375,809.5285034179688,29.536741256713867,,False,
1783648141.2218616,2026-07-09T18:49:01,11738,20260709_184855,,,,,,arming,,,,,,,,,False,-0.011648913845419884,-0.005748542491346598,1.0032715797424316,-0.08979671448469162,-0.524051308631897,-0.7258970737457275,6.0,2.0,59.0,0.0,0.0,0.0003791432245634496,6.679676880594343e-05,0.00010783884499687701,0.0024574939161539078,0.002368317451328039,0.001195486867800355,-0.21640458703041077,-0.37057408690452576,0.06285613775253296,0.00010783884499687701,0.001220301608555019,2.4760543055890594e-06,0.0001677322288742289,3.642228841781616,10.0,0.0,7000.0,7000.0,7000.0,7000.0,32.766,32.766,32.766,32.766,32.766,2023.43115234375,809.5256958007812,29.546846389770508,,False,
1783648141.2322543,2026-07-09T18:49:01,11752,20260709_184855,,,,,,arming,,,,,,,,,False,-0.003578120144084096,-0.004236600361764431,1.002509593963623,0.7295787334442139,-0.429044246673584,-1.1271435022354126,-4.0,0.0,69.0,0.0,0.0,-0.0001617199304746464,-0.0004714404058177024,0.00015150786202866584,-0.0005247617373242974,-0.0004007673414889723,0.0018184375949203968,-0.19926069676876068,-0.3435959219932556,0.06115921214222908,0.00010783884499687701,0.001220301608555019,2.4760543055890594e-06,0.0001677322288742289,3.642228841781616,10.0,0.0,7000.0,7000.0,7000.0,7000.0,32.766,32.766,32.766,32.766,32.766,2023.43115234375,809.5256958007812,29.546846389770508,,False,
1783648141.2424443,2026-07-09T18:49:01,11758,20260709_184855,,,,,,arming,,,,,,,,,False,-0.0019858703017234802,-0.0019084246596321464,1.003413438796997,-0.6579950451850891,0.2272956222295761,-1.1625561714172363,-2.0,0.0,71.0,0.0,0.0,-0.0001617199304746464,-0.0004714404058177024,0.00015150786202866584,-0.0005247617373242974,-0.0004007673414889723,0.0018184375949203968,-0.19926069676876068,-0.3435959219932556,0.06115921214222908,0.00010783884499687701,0.001220301608555019,2.4760543055890594e-06,0.0001677322288742289,3.642228841781616,10.0,0.0,7000.0,7000.0,7000.0,7000.0,32.766,32.766,32.766,32.766,32.766,2023.43115234375,809.5256958007812,29.546846389770508,,False,
1783648141.2526057,2026-07-09T18:49:01,11772,20260709_184855,,,,,,arming,,,,,,,,,False,-0.009665684774518013,-0.007454514969140291,1.0006686449050903,0.33909401297569275,-0.41274920105934143,-1.1905320882797241,0.0,-1.0,80.0,0.0,0.0,0.0,0.0,0.0,0.0,0.0,0.0,0.0,0.0,0.0,0.00010783884499687701,0.001220301608555019,2.4760543055890594e-06,0.0001677322288742289,3.642228841781616,10.0,0.0,7000.0,7000.0,7000.0,7000.0,32.766,32.766,32.766,32.766,32.766,2023.43115234375,809.5256958007812,29.546846389770508,,False,
1783648141.2627497,2026-07-09T18:49:01,11784,20260709_184855,,,,,,arming,,,,,,,,,False,-0.0005174083053134382,-0.002349155256524682,0.9903424978256226,0.26541051268577576,-0.18037185072898865,-0.991661548614502,5.0,1.0,60.0,0.0,0.0,0.0,0.0,0.0,0.0,0.0,0.0,0.0,0.0,0.0,-0.15591053664684296,0.000558733765501529,0.9834813475608826,0.00011600000289035961,3.642228841781616,10.0,0.0,7000.0,7000.0,7000.0,7000.0,32.766,32.766,32.766,32.766,32.766,2023.43115234375,809.5256958007812,29.546846389770508,,False,
1783648141.2728908,2026-07-09T18:49:01,11792,20260709_184855,,,,,,arming,,,,,,,,,False,-0.010796530172228813,-0.00309598702006042,1.0007339715957642,-0.3527384102344513,-0.06518400460481644,-0.38669076561927795,-2.0,0.0,45.0,0.0,0.0,-2.8169004508526996e-05,-6.482413300545886e-05,7.589580491185188e-06,-0.0018411619821563363,-0.003861785400658846,0.00016148579015862197,0.004112922120839357,0.009074476547539234,-0.0018029995262622833,-0.15591053664684296,0.000558733765501529,0.9834813475608826,0.00011600000289035961,3.6527860164642334,10.0,0.0,7000.0,7000.0,7000.0,7000.0,32.766,32.766,1.3980000000000001,32.766,32.766,2023.43115234375,809.5256958007812,29.546846389770508,,False,
1783648141.2830908,2026-07-09T18:49:01,11798,20260709_184855,,,,,,arming,,,,,,,,,False,-0.0031081121414899826,-0.0031548072583973408,1.0135871171951294,0.9528644680976868,-0.8965823650360107,-0.4340151250362396,0.0,0.0,56.0,0.0,0.0,-2.8169004508526996e-05,-6.482413300545886e-05,7.589580491185188e-06,-0.0018411619821563363,-0.003861785400658846,0.00016148579015862197,0.004112922120839357,0.009074476547539234,-0.0018029995262622833,-0.15591053664684296,0.000558733765501529,0.9834813475608826,0.00011600000289035961,3.6527860164642334,10.0,0.0,7000.0,7000.0,7000.0,7000.0,32.766,32.766,1.3980000000000001,32.766,32.766,2023.43115234375,809.5256958007812,29.546846389770508,,False,
1783648141.2933028,2026-07-09T18:49:01,11812,20260709_184855,,,,,,arming,,,,,,,,,False,-0.001295116264373064,-0.0017150391358882189,1.0081850290298462,-0.35461246967315674,0.4097517132759094,-0.20533224940299988,4.0,1.0,71.0,0.0,0.0,-0.00011646422353805974,-0.0003063996264245361,-2.9756615731457714e-06,-0.004187478218227625,-0.009274819865822792,0.00022660594549961388,0.0917753130197525,0.032862965017557144,-0.0009992143604904413,-0.15591053664684296,0.000558733765501529,0.9834813475608826,0.00011600000289035961,3.6527860164642334,10.0,0.0,7000.0,7000.0,7000.0,7000.0,32.766,32.766,1.3980000000000001,32.766,32.766,2023.43115234375,809.5256958007812,29.546846389770508,,False,
1783648141.3035095,2026-07-09T18:49:01,11818,20260709_184855,,,,,,arming,,,,,,,,,False,-0.014421911910176277,-0.005484904162585735,0.992377758026123,-0.4858429729938507,0.5297888517379761,-0.31537100672721863,-4.0,-1.0,67.0,0.0,0.0,-0.00011646422353805974,-0.0003063996264245361,-2.9756615731457714e-06,-0.004187478218227625,-0.009274819865822792,0.00022660594549961388,0.0917753130197525,0.032862965017557144,-0.0009992143604904413,-0.15591053664684296,0.000558733765501529,0.9834813475608826,0.00011600000289035961,3.6527860164642334,10.0,0.0,7000.0,7000.0,7000.0,7000.0,32.766,32.766,1.3980000000000001,32.766,32.766,2023.43115234375,809.5256958007812,29.546846389770508,,False,
1783648141.3137105,2026-07-09T18:49:01,11835,20260709_184855,,,,,,arming,,,,,,,,,False,-0.007823399268090725,-0.010783139616250992,1.00315523147583,1.7904149293899536,-1.3028826713562012,-0.8193597197532654,0.0,0.0,80.0,0.0,0.0,-0.0001252054498763755,-0.00020611434592865407,2.040422441496048e-05,-0.003727931762114167,-0.004143002908676863,0.0007751761004328728,-0.03981409966945648,-0.010348632000386715,0.0028538403566926718,2.040422441496048e-05,0.0007716253167018294,3.1821109587326646e-06,0.00016350137593690306,3.647507429122925,10.0,0.0,7000.0,7000.0,7000.0,7000.0,32.766,32.766,1.3980000000000001,32.766,32.766,2023.43115234375,809.5256958007812,29.546846389770508,,False,
1783648141.3238864,2026-07-09T18:49:01,11838,20260709_184855,,,,,,arming,,,,,,,,,False,0.004334987141191959,0.005845695734024048,0.9968701601028442,-1.0636951923370361,1.322845220565796,-0.7175870537757874,1.0,0.0,60.0,0.0,0.0,-0.0001252054498763755,-0.00020611434592865407,2.040422441496048e-05,-0.003727931762114167,-0.004143002908676863,0.0007751761004328728,-0.03981409966945648,-0.010348632000386715,0.0028538403566926718,2.040422441496048e-05,0.0007716253167018294,3.1821109587326646e-06,0.00016350137593690306,3.647507429122925,10.0,0.0,7000.0,7000.0,7000.0,7000.0,32.766,32.766,1.3980000000000001,0.34800000000000003,32.766,2023.43115234375,809.5259399414062,29.555908203125,,False,
1783648141.334051,2026-07-09T18:49:01,11852,20260709_184855,,,,,,arming,,,,,,,,,False,-0.005726765841245651,-0.00437041325494647,1.007798433303833,-0.1761978268623352,0.2163924127817154,-0.2644988000392914,1.0,0.0,70.0,0.0,0.0,-0.00015880484716035426,-0.0004187817685306072,3.551465124473907e-05,-0.003232198301702738,-0.006477667484432459,0.0006742699770256877,0.01499984972178936,-0.038543179631233215,0.0012027554912492633,2.040422441496048e-05,0.0007716253167018294,3.1821109587326646e-06,0.00016350137593690306,3.647507429122925,10.0,0.0,7000.0,7000.0,7000.0,7000.0,32.766,32.766,1.3980000000000001,0.34800000000000003,32.766,2023.43115234375,809.5259399414062,29.555908203125,,False,
1783648141.3442245,2026-07-09T18:49:01,11858,20260709_184855,,,,,,arming,,,,,,,,,False,-0.0061992472037673,-0.006611682008951902,1.004852056503296,0.6713689565658569,-0.8009073138237,-0.40067848563194275,-6.0,0.0,71.0,0.0,0.0,-0.00015880484716035426,-0.0004187817685306072,3.551465124473907e-05,-0.003232198301702738,-0.006477667484432459,0.0006742699770256877,0.01499984972178936,-0.038543179631233215,0.0012027554912492633,2.040422441496048e-05,0.0007716253167018294,3.1821109587326646e-06,0.00016350137593690306,3.647507429122925,10.0,0.0,7000.0,7000.0,7000.0,7000.0,32.766,32.766,1.3980000000000001,0.34800000000000003,32.766,2023.43115234375,809.5259399414062,29.555908203125,,False,
1783648141.3543847,2026-07-09T18:49:01,11877,20260709_184855,,,,,,arming,,,,,,,,,False,-0.0006316338549368083,-0.002462024101987481,1.00022292137146,-0.43457433581352234,0.7006590962409973,-0.04073534533381462,0.0,-1.0,73.0,0.0,0.0,-9.708027937449515e-05,0.00013231922639533877,7.373913103947416e-05,-0.0025107511319220066,0.002474011154845357,0.0015345759456977248,-0.24772138893604279,-0.08996898680925369,0.0016815111739560962,2.040422441496048e-05,0.0007716253167018294,3.1821109587326646e-06,0.00016350137593690306,3.647507429122925,10.0,0.0,7000.0,7000.0,7000.0,7000.0,32.766,32.766,1.3980000000000001,0.34800000000000003,32.766,2023.43115234375,809.5259399414062,29.555908203125,,False,
1783648141.3645446,2026-07-09T18:49:01,11886,20260709_184855,,,,,,arming,,,,,,,,,False,-0.0006316338549368083,-0.002462024101987481,1.00022292137146,-0.43457433581352234,0.7006590962409973,-0.04073534533381462,6.0,0.0,54.0,0.0,0.0,-9.708027937449515e-05,0.00013231922639533877,7.373913103947416e-05,-0.0025107511319220066,0.002474011154845357,0.0015345759456977248,-0.24772138893604279,-0.08996898680925369,0.0016815111739560962,0.00010053484584204853,0.0014212977839633822,3.898026989190839e-06,0.0002135004906449467,3.6527860164642334,10.0,0.0,7000.0,7000.0,7000.0,7000.0,32.766,32.766,1.421,0.34800000000000003,32.766,2023.43115234375,809.5259399414062,29.555908203125,,False,
1783648141.374708,2026-07-09T18:49:01,11897,20260709_184855,,,,,,arming,,,,,,,,,False,-0.001542478334158659,0.002460487186908722,0.9997342824935913,0.32829323410987854,-0.2890821099281311,-0.11097048968076706,-2.0,2.0,48.0,0.0,0.0,-0.0003618758637458086,-0.0003238059871364385,7.345282938331366e-05,-0.0056673139333724976,-0.0033314800821244717,0.0015903031453490257,-0.0766647681593895,-0.01397069450467825,-7.480826025130227e-05,0.00010053484584204853,0.0014212977839633822,3.898026989190839e-06,0.0002135004906449467,3.6527860164642334,10.0,0.0,7000.0,7000.0,7000.0,7000.0,32.766,32.766,1.421,0.34800000000000003,32.766,2023.43115234375,809.5259399414062,29.555908203125,,False,
1783648141.384867,2026-07-09T18:49:01,11898,20260709_184855,,,,,,arming,,,,,,,,,False,-0.001542478334158659,0.002460487186908722,0.9997342824935913,0.32829323410987854,-0.2890821099281311,-0.11097048968076706,0.0,-1.0,59.0,0.0,0.0,-0.0003618758637458086,-0.0003238059871364385,7.345282938331366e-05,-0.0056673139333724976,-0.0033314800821244717,0.0015903031453490257,-0.0766647681593895,-0.01397069450467825,-7.480826025130227e-05,0.00010053484584204853,0.0014212977839633822,3.898026989190839e-06,0.0002135004906449467,3.6527860164642334,10.0,0.0,7000.0,7000.0,7000.0,7000.0,32.766,32.766,1.421,0.34800000000000003,32.766,2023.43115234375,809.5259399414062,29.555908203125,,False,
1783648141.3951437,2026-07-09T18:49:01,11918,20260709_184855,,,,,,arming,,,,,,,,,False,-0.012949165888130665,-0.0008374940371140838,0.9976816773414612,0.6464359760284424,-0.9227945804595947,0.08982551842927933,1.0,1.0,69.0,0.0,0.0,-0.0002551164652686566,-5.16246072947979e-05,0.00011541842832230031,-0.0035443296656012535,0.000551786448340863,0.0018134923884645104,-0.1981188952922821,-0.08257314562797546,-0.003215320874005556,0.00010053484584204853,0.0014212977839633822,3.898026989190839e-06,0.0002135004906449467,3.6527860164642334,10.0,0.0,7000.0,7000.0,7000.0,7000.0,32.766,32.766,1.421,0.34800000000000003,32.766,2023.43115234375,809.5259399414062,29.555908203125,,False,
1783648141.4054348,2026-07-09T18:49:01,11928,20260709_184855,,,,,,arming,,,,,,,,,False,0.0030762411188334227,-0.0009340120013803244,1.0021839141845703,0.9128066897392273,-1.0580533742904663,-0.4671895503997803,2.0,0.0,72.0,0.0,0.0,-0.0002551164652686566,-5.16246072947979e-05,0.00011541842832230031,-0.0035443296656012535,0.000551786448340863,0.0018134923884645104,-0.1981188952922821,-0.08257314562797546,-0.003215320874005556,0.00010053484584204853,0.0014212977839633822,3.898026989190839e-06,0.0002135004906449467,3.6527860164642334,10.0,0.0,7000.0,7000.0,7000.0,7000.0,32.766,32.766,1.421,0.34800000000000003,32.766,2023.43115234375,809.5259399414062,29.555908203125,,False,
1783648141.415656,2026-07-09T18:49:01,11938,20260709_184855,,,,,,arming,,,,,,,,,False,0.005474490579217672,0.005989571567624807,1.0001189708709717,-1.6428357362747192,1.2670334577560425,-0.13204193115234375,2.0,0.0,72.0,0.0,0.0,-0.00044519518269225955,-0.0005311026470735669,0.00010264838056173176,-0.005752089899033308,-0.005674345418810844,0.0022108859848231077,-0.04342968761920929,-0.04995214566588402,-0.00369504583068192,0.00010264838056173176,0.002201572759076953,2.2513704607263207e-06,0.00021405957522802055,3.6527860164642334,10.0,0.0,7000.0,7000.0,7000.0,7000.0,32.766,32.766,1.421,32.766,32.766,2023.3216552734375,809.535400390625,29.56431007385254,,False,
1783648141.4258132,2026-07-09T18:49:01,11948,20260709_184855,,,,,,arming,,,,,,,,,False,-0.010295430198311806,-0.0022322549484670162,1.0018470287322998,0.05346575006842613,0.381486713886261,-0.2218492031097412,-4.0,-2.0,60.0,0.0,0.0,-0.00044519518269225955,-0.0005311026470735669,0.00010264838056173176,-0.005752089899033308,-0.005674345418810844,0.0022108859848231077,-0.04342968761920929,-0.04995214566588402,-0.00369504583068192,0.00010264838056173176,0.002201572759076953,2.2513704607263207e-06,0.00021405957522802055,3.6527860164642334,10.0,0.0,7000.0,7000.0,7000.0,7000.0,32.766,32.766,1.421,32.766,32.766,2023.3216552734375,809.535400390625,29.56431007385254,,False,
1783648141.4359827,2026-07-09T18:49:01,11958,20260709_184855,,,,,,arming,,,,,,,,,False,-0.008574305102229118,-0.008149245753884315,1.0034089088439941,1.0346866846084595,-0.8783252835273743,-0.42388054728507996,0.0,1.0,77.0,0.0,0.0,-0.00011684248602250591,0.00016714478260837495,0.0001527964195702225,-0.001105994451791048,0.0034258568193763494,0.002145845675840974,-0.28512781858444214,-0.18482381105422974,-0.0036726605612784624,0.00010264838056173176,0.002201572759076953,2.2513704607263207e-06,0.00021405957522802055,3.6527860164642334,10.0,0.0,7000.0,7000.0,7000.0,7000.0,32.766,32.766,1.421,32.766,32.766,2023.3216552734375,809.535400390625,29.56431007385254,,False,
1783648141.4462612,2026-07-09T18:49:01,11968,20260709_184855,,,,,,arming,,,,,,,,,False,-0.005457226652652025,0.0019253409700468183,0.9894635677337646,-1.2726742029190063,1.022813081741333,-0.15595902502536774,0.0,-1.0,75.0,0.0,0.0,-0.00011684248602250591,0.00016714478260837495,0.0001527964195702225,-0.001105994451791048,0.0034258568193763494,0.002145845675840974,-0.28512781858444214,-0.18482381105422974,-0.0036726605612784624,0.00010264838056173176,0.002201572759076953,2.2513704607263207e-06,0.00021405957522802055,3.6527860164642334,10.0,0.0,7000.0,7000.0,7000.0,7000.0,32.766,32.766,1.421,32.766,32.766,2023.3216552734375,809.535400390625,29.56431007385254,,False,
1783648141.4564233,2026-07-09T18:49:01,11978,20260709_184855,,,,,,arming,,,,,,,,,False,-0.007509950548410416,-0.008724786341190338,0.9998986124992371,-0.18772542476654053,0.07818238437175751,-0.36037111282348633,4.0,1.0,49.0,0.0,0.0,-0.00011772172001656145,0.00015467079356312752,0.00020318166934885085,-0.001727293012663722,0.0026672929525375366,0.002630221424624324,-0.25123631954193115,-0.18850059807300568,-0.00510037736967206,0.00010264838056173176,0.002201572759076953,2.2513704607263207e-06,0.00021405957522802055,3.6527860164642334,10.0,0.0,7000.0,7000.0,7000.0,7000.0,32.766,32.766,1.421,32.766,32.766,2023.3216552734375,809.535400390625,29.56431007385254,,False,
1783648141.4665897,2026-07-09T18:49:01,11988,20260709_184855,,,,,,arming,,,,,,,,,False,-0.004984363913536072,-0.006496500223875046,1.0095412731170654,0.7477020621299744,-0.7442592978477478,-0.4080507159233093,0.0,1.0,47.0,0.0,0.0,-0.00011772172001656145,0.00015467079356312752,0.00020318166934885085,-0.001727293012663722,0.0026672929525375366,0.002630221424624324,-0.25123631954193115,-0.18850059807300568,-0.00510037736967206,0.00023628378403373063,0.0025379941798746586,3.92022957385052e-06,0.0002640581224113703,3.6527860164642334,10.0,0.0,7000.0,7000.0,7000.0,7000.0,32.766,32.766,1.3860000000000001,32.766,32.766,2023.3216552734375,809.535400390625,29.56431007385254,,False,
1783648141.476745,2026-07-09T18:49:01,11998,20260709_184855,,,,,,arming,,,,,,,,,False,0.0012644698144868016,0.0016327621415257454,0.9942817687988281,-0.6751636266708374,0.7641733884811401,-0.6124764084815979,1.0,0.0,68.0,0.0,0.0,-0.0005349497077986598,-0.0006527085206471384,0.00015316718781832606,-0.00566716305911541,-0.005530375521630049,0.001783669926226139,-0.06683756411075592,-0.10440181195735931,-0.0033767649438232183,0.00023628378403373063,0.0025379941798746586,3.92022957385052e-06,0.0002640581224113703,3.6527860164642334,10.0,0.0,7000.0,7000.0,7000.0,7000.0,32.766,32.766,1.3860000000000001,32.766,32.766,2023.3216552734375,809.535400390625,29.56431007385254,,False,
1783648141.4868996,2026-07-09T18:49:01,12008,20260709_184855,,,,,,arming,,,,,,,,,False,-0.00916566327214241,-0.0035128206945955753,1.0029703378677368,-0.43250322341918945,0.19325877726078033,-0.6723059415817261,-1.0,0.0,73.0,0.0,0.0,-0.0005349497077986598,-0.0006527085206471384,0.00015316718781832606,-0.00566716305911541,-0.005530375521630049,0.001783669926226139,-0.06683756411075592,-0.10440181195735931,-0.0033767649438232183,0.00023628378403373063,0.0025379941798746586,3.92022957385052e-06,0.0002640581224113703,3.6527860164642334,10.0,0.0,7000.0,7000.0,7000.0,7000.0,32.766,32.766,1.3860000000000001,32.766,32.766,2023.3216552734375,809.535400390625,29.56431007385254,,False,
1783648141.497108,2026-07-09T18:49:01,12018,20260709_184855,,,,,,arming,,,,,,,,,False,-0.00905729178339243,-0.006173521745949984,1.00237238407135,0.4266756474971771,-0.2889382839202881,-0.19649845361709595,-1.0,0.0,71.0,0.0,0.0,-0.000518380431458354,-0.0006414924282580614,0.0001969347649719566,-0.004824717529118061,-0.004813060164451599,0.00205744756385684,-0.09360861033201218,-0.13617685437202454,-0.005020670127123594,0.00023628378403373063,0.0025379941798746586,3.92022957385052e-06,0.0002640581224113703,3.6527860164642334,10.0,0.0,7000.0,7000.0,7000.0,7000.0,32.766,32.766,1.3860000000000001,32.766,32.766,2023.3216552734375,809.535400390625,29.56431007385254,,False,
1783648141.5073192,2026-07-09T18:49:01,12028,20260709_184855,,,,,,arming,,,,,,,,,False,-0.007851152680814266,-0.002892362652346492,0.9943422079086304,-0.3906690776348114,0.21345864236354828,-0.31371328234672546,-3.0,-2.0,75.0,0.0,0.0,-0.000518380431458354,-0.0006414924282580614,0.0001969347649719566,-0.004824717529118061,-0.004813060164451599,0.00205744756385684,-0.09360861033201218,-0.13617685437202454,-0.005020670127123594,0.00023628378403373063,0.0025379941798746586,3.92022957385052e-06,0.0002640581224113703,3.6527860164642334,10.0,0.0,7000.0,7000.0,7000.0,7000.0,32.766,32.766,1.3860000000000001,32.766,32.766,2023.3216552734375,809.535400390625,29.56431007385254,,False,
1783648141.5175045,2026-07-09T18:49:01,12038,20260709_184855,,,,,,arming,,,,,,,,,False,-0.005878366995602846,-0.008081231266260147,1.000593900680542,0.3035413324832916,-0.3881196677684784,-0.5027863383293152,4.0,1.0,46.0,0.0,0.0,-9.353002678835765e-05,0.0002202970499638468,0.0001489725400460884,-0.0010475637391209602,0.0033211426343768835,0.0016692567151039839,-0.27501022815704346,-0.23335134983062744,-0.007807564456015825,0.0001489725400460884,0.0016808990621939301,2.488773134246003e-06,0.0001979775115614757,3.647507429122925,10.0,0.0,7000.0,7000.0,7000.0,7000.0,32.766,32.766,1.3860000000000001,0.396,32.766,2023.34912109375,809.533447265625,29.570459365844727,,False,
1783648141.5276935,2026-07-09T18:49:01,12048,20260709_184855,,,,,,arming,,,,,,,,,False,-0.0013374227564781904,-0.003860022872686386,0.9988822937011719,-0.03842974826693535,-0.08191472291946411,-0.3581594228744507,-1.0,1.0,74.0,0.0,0.0,-9.353002678835765e-05,0.0002202970499638468,0.0001489725400460884,-0.0010475637391209602,0.0033211426343768835,0.0016692567151039839,-0.27501022815704346,-0.23335134983062744,-0.007807564456015825,0.0001489725400460884,0.0016808990621939301,2.488773134246003e-06,0.0001979775115614757,3.647507429122925,10.0,0.0,7000.0,7000.0,7000.0,7000.0,32.766,32.766,1.3860000000000001,0.396,32.766,2023.34912109375,809.533447265625,29.570459365844727,,False,
1783648141.5378757,2026-07-09T18:49:01,12058,20260709_184855,,,,,,arming,,,,,,,,,False,-0.009421208873391151,-0.0005269466782920063,1.000388741493225,-0.15530666708946228,0.12445695698261261,-0.3915265202522278,0.0,-1.0,76.0,0.0,0.0,-0.0005352378939278424,-0.0004351903044153005,0.00019131212320644408,-0.004855059552937746,-0.0026141898706555367,0.0018410254269838333,-0.1530010849237442,-0.15600109100341797,-0.007030114531517029,0.0001489725400460884,0.0016808990621939301,2.488773134246003e-06,0.0001979775115614757,3.647507429122925,10.0,0.0,7000.0,7000.0,7000.0,7000.0,32.766,32.766,1.3860000000000001,0.396,32.766,2023.34912109375,809.533447265625,29.570459365844727,,False,
1783648141.548065,2026-07-09T18:49:01,12068,20260709_184855,,,,,,arming,,,,,,,,,False,-0.004271685145795345,-0.005959934089332819,1.0021864175796509,0.5713826417922974,-0.2329624742269516,0.35560184717178345,2.0,3.0,69.0,0.0,0.0,-0.0005352378939278424,-0.0004351903044153005,0.00019131212320644408,-0.004855059552937746,-0.0026141898706555367,0.0018410254269838333,-0.1530010849237442,-0.15600109100341797,-0.007030114531517029,0.0001489725400460884,0.0016808990621939301,2.488773134246003e-06,0.0001979775115614757,3.647507429122925,10.0,0.0,7000.0,7000.0,7000.0,7000.0,32.766,32.766,1.3860000000000001,0.396,32.766,2023.34912109375,809.533447265625,29.570459365844727,,False,
1783648141.5582588,2026-07-09T18:49:01,12078,20260709_184855,,,,,,arming,,,,,,,,,False,-0.004390368238091469,-0.0012851156061515212,0.9987124800682068,-0.2820110619068146,0.5980051159858704,0.06170084699988365,-1.0,-2.0,48.0,0.0,0.0,-0.0009826141176745296,-0.0008794846362434328,0.00022630186867900193,-0.008562572300434113,-0.005832876078784466,0.0017005481058731675,-0.09000368416309357,-0.09700270742177963,-0.010595549829304218,0.0001489725400460884,0.0016808990621939301,2.488773134246003e-06,0.0001979775115614757,3.647507429122925,10.0,0.0,7000.0,7000.0,7000.0,7000.0,32.766,32.766,1.3860000000000001,0.396,32.766,2023.34912109375,809.533447265625,29.570459365844727,,False,
1783648141.5684183,2026-07-09T18:49:01,12091,20260709_184855,,,,,,arming,,,,,,,,,False,-0.0058572678826749325,-0.008369756862521172,1.004047155380249,0.7250110507011414,-0.8843571543693542,0.05366995558142662,0.0,0.0,45.0,0.0,0.0,-0.0005537372198887169,-0.0006796211237087846,0.00015267427079379559,-0.004523473791778088,-0.0038757859729230404,0.0013372036628425121,-0.09000368416309357,-0.09700270742177963,-0.010595549829304218,0.00025478325551375747,0.0019070184789597988,4.461976459424477e-06,0.00024797211517579854,3.6527860164642334,10.0,0.0,7000.0,7000.0,7000.0,7000.0,32.766,32.766,1.385,0.396,32.766,2023.34912109375,809.533447265625,29.570459365844727,,False,
1783648141.5785844,2026-07-09T18:49:01,12098,20260709_184855,,,,,,arming,,,,,,,,,False,0.0012383440043777227,-0.005667827557772398,0.9984220862388611,-0.168446883559227,0.37721604108810425,0.018205292522907257,-1.0,0.0,67.0,0.0,0.0,-0.0005537372198887169,-0.0006796211237087846,0.00015267427079379559,-0.004523473791778088,-0.0038757859729230404,0.0013372036628425121,-0.13785044848918915,-0.1880558878183365,-0.007345231715589762,0.00025478325551375747,0.0019070184789597988,4.461976459424477e-06,0.00024797211517579854,3.6527860164642334,10.0,0.0,7000.0,7000.0,7000.0,7000.0,32.766,32.766,1.385,0.396,32.766,2023.34912109375,809.533447265625,29.570459365844727,,False,
1783648141.588739,2026-07-09T18:49:01,12111,20260709_184855,,,,,,arming,,,,,,,,,False,-0.0044684880413115025,-0.0036515556275844574,0.9994697570800781,-0.7314948439598083,0.8438126444816589,0.09656606614589691,-2.0,-2.0,68.0,0.0,0.0,-1.3444500837067608e-05,0.0001056603214237839,0.00018245972751174122,0.00047537582577206194,0.002152238506823778,0.0013516682665795088,-0.13785044848918915,-0.1880558878183365,-0.007345231715589762,0.00025478325551375747,0.0019070184789597988,4.461976459424477e-06,0.00024797211517579854,3.6527860164642334,10.0,0.0,7000.0,7000.0,7000.0,7000.0,32.766,32.766,1.385,0.396,32.766,2023.34912109375,809.533447265625,29.570459365844727,,False,
1783648141.5988975,2026-07-09T18:49:01,12118,20260709_184855,,,,,,arming,,,,,,,,,False,-0.0052122618071734905,-0.009380345232784748,1.0041922330856323,1.3533525466918945,-1.0668680667877197,0.38816654682159424,-1.0,0.0,69.0,0.0,0.0,-1.3444500837067608e-05,0.0001056603214237839,0.00018245972751174122,0.00047537582577206194,0.002152238506823778,0.0013516682665795088,-0.2602328956127167,-0.2792927026748657,-0.00581100070849061,0.00025478325551375747,0.0019070184789597988,4.461976459424477e-06,0.00024797211517579854,3.6527860164642334,10.0,0.0,7000.0,7000.0,7000.0,7000.0,32.766,32.766,1.385,0.396,32.766,2023.34912109375,809.533447265625,29.570459365844727,,False,
1783648141.6091506,2026-07-09T18:49:01,12131,20260709_184855,,,,,,arming,,,,,,,,,False,-0.002135265152901411,0.003980355337262154,0.9886888265609741,-0.4105755090713501,0.13675889372825623,0.34010571241378784,0.0,1.0,74.0,0.0,0.0,-0.00028720154659822583,0.0003196920733898878,0.00012652094301301986,-0.0014463921543210745,0.0032140803523361683,0.0012990892864763737,-0.2602328956127167,-0.2792927026748657,-0.00581100070849061,0.00025478325551375747,0.0019070184789597988,4.461976459424477e-06,0.00024797211517579854,3.6527860164642334,10.0,0.0,7000.0,7000.0,7000.0,7000.0,32.766,32.766,1.385,0.396,32.766,2023.34912109375,809.533447265625,29.570459365844727,,False,
1783648141.619359,2026-07-09T18:49:01,12138,20260709_184855,,,,,,arming,,,,,,,,,False,-0.004727709107100964,-0.00726900901645422,1.0081393718719482,-0.01815951056778431,-0.06517953425645828,-0.0174003466963768,3.0,0.0,47.0,0.0,0.0,-0.00028720154659822583,0.0003196920733898878,0.00012652094301301986,-0.0014463921543210745,0.0032140803523361683,0.0012990892864763737,-0.2740755081176758,-0.23358610272407532,-0.006432581692934036,0.00012652094301301986,0.0013085419777780771,2.5605952487239847e-06,0.00017616376862861216,3.6527860164642334,10.0,0.0,7000.0,7000.0,7000.0,7000.0,32.766,32.766,1.385,32.766,32.766,2023.3709716796875,809.531005859375,29.58025360107422,,False,
1783648141.629515,2026-07-09T18:49:01,12152,20260709_184855,,,,,,arming,,,,,,,,,False,0.0019871536642313004,-0.0007875962182879448,1.0051629543304443,0.19662265479564667,-0.421000599861145,0.0657857283949852,0.0,0.0,71.0,0.0,0.0,-0.00027352789766155183,-0.0004369542293716222,0.00015137760783545673,-0.0012040861183777452,-0.002410996239632368,0.0011193947866559029,-0.1791633814573288,-0.23959729075431824,-0.006945575121790171,0.00012652094301301986,0.0013085419777780771,2.5605952487239847e-06,0.00017616376862861216,3.6527860164642334,10.0,0.0,7000.0,7000.0,7000.0,7000.0,32.766,32.766,1.385,32.766,32.766,2023.3709716796875,809.531005859375,29.58025360107422,,False,
1783648141.6396687,2026-07-09T18:49:01,12158,20260709_184855,,,,,,arming,,,,,,,,,False,-0.006459030322730541,-0.003073910716921091,1.0042169094085693,-0.15079231560230255,0.21360263228416443,0.219718798995018,-3.0,-1.0,69.0,0.0,0.0,-0.00027352789766155183,-0.0004369542293716222,0.00015137760783545673,-0.0012040861183777452,-0.002410996239632368,0.0011193947866559029,-0.1791633814573288,-0.23959729075431824,-0.006945575121790171,0.00012652094301301986,0.0013085419777780771,2.5605952487239847e-06,0.00017616376862861216,3.6527860164642334,10.0,0.0,7000.0,7000.0,7000.0,7000.0,32.766,32.766,1.385,32.766,32.766,2023.3709716796875,809.531005859375,29.58025360107422,,False,
1783648141.6498234,2026-07-09T18:49:01,12172,20260709_184855,,,,,,arming,,,,,,,,,False,-0.003964397590607405,-0.008132418617606163,0.9959413409233093,0.4695954918861389,-0.38837677240371704,0.533013105392456,0.0,0.0,72.0,0.0,0.0,2.080004196614027e-05,0.00041305823833681643,0.00017823671805672348,0.0008209989173337817,0.003678704146295786,0.0016603627009317279,-0.27779465913772583,-0.2707410752773285,-0.00980823952704668,0.00012652094301301986,0.0013085419777780771,2.5605952487239847e-06,0.00017616376862861216,3.6527860164642334,10.0,0.0,7000.0,7000.0,7000.0,7000.0,32.766,32.766,1.385,32.766,32.766,2023.3709716796875,809.531005859375,29.58025360107422,,False,
1783648141.6599758,2026-07-09T18:49:01,12178,20260709_184855,,,,,,arming,,,,,,,,,False,-0.00702831894159317,-0.0008841697126626968,0.9983482956886292,-0.9811735153198242,0.9718782901763916,0.4654980003833771,3.0,1.0,49.0,0.0,0.0,2.080004196614027e-05,0.00041305823833681643,0.00017823671805672348,0.0008209989173337817,0.003678704146295786,0.0016603627009317279,-0.27779465913772583,-0.2707410752773285,-0.00980823952704668,0.00012652094301301986,0.0013085419777780771,2.5605952487239847e-06,0.00017616376862861216,3.6527860164642334,10.0,0.0,7000.0,7000.0,7000.0,7000.0,32.766,32.766,1.385,32.766,32.766,2023.3709716796875,809.531005859375,29.58025360107422,,False,
1783648141.6702418,2026-07-09T18:49:01,12192,20260709_184855,,,,,,arming,,,,,,,,,False,-0.010692751966416836,-0.011103879660367966,1.004318118095398,0.9673061966896057,-0.9305612444877625,0.588782787322998,0.0,0.0,46.0,0.0,0.0,-0.00026315083960071206,-0.0004673261137213558,0.0001230092893820256,-0.0008408555295318365,-0.0021746745333075523,0.0011945819715037942,-0.18508082628250122,-0.24670450389385223,-0.010419955477118492,0.00020346595556475222,0.0015598594909533858,4.428624833963113e-06,0.00022616321803070605,3.6527860164642334,10.0,0.0,7000.0,7000.0,7000.0,7000.0,32.766,32.766,1.3800000000000001,32.766,32.766,2023.3709716796875,809.531005859375,29.58025360107422,,False,
1783648141.6804557,2026-07-09T18:49:01,12198,20260709_184855,,,,,,arming,,,,,,,,,False,-0.002316319616511464,-0.002772433450445533,0.9928936958312988,-0.01922575756907463,0.40421396493911743,0.36112719774246216,0.0,0.0,65.0,0.0,0.0,-0.00026315083960071206,-0.0004673261137213558,0.0001230092893820256,-0.0008408555295318365,-0.0021746745333075523,0.0011945819715037942,-0.18508082628250122,-0.24670450389385223,-0.010419955477118492,0.00020346595556475222,0.0015598594909533858,4.428624833963113e-06,0.00022616321803070605,3.6527860164642334,10.0,0.0,7000.0,7000.0,7000.0,7000.0,32.766,32.766,1.3800000000000001,32.766,32.766,2023.3709716796875,809.531005859375,29.58025360107422,,False,
1783648141.6906545,2026-07-09T18:49:01,12212,20260709_184855,,,,,,arming,,,,,,,,,False,-0.004493796266615391,-0.0031902785412967205,1.0093088150024414,0.04672641307115555,0.3329726755619049,0.3322257399559021,-1.0,1.0,67.0,0.0,0.0,-0.0005702730850316584,-0.0001195394215756096,0.0001513812894700095,-0.003318243892863393,-0.0001570091408211738,0.0010763390455394983,-0.21886593103408813,-0.21460355818271637,-0.010706217959523201,0.00020346595556475222,0.0015598594909533858,4.428624833963113e-06,0.00022616321803070605,3.6527860164642334,10.0,0.0,7000.0,7000.0,7000.0,7000.0,32.766,32.766,1.3800000000000001,32.766,32.766,2023.3709716796875,809.531005859375,29.58025360107422,,False,
1783648141.7008102,2026-07-09T18:49:01,12218,20260709_184855,,,,,,arming,,,,,,,,,False,0.0031022848561406136,0.0008714227005839348,0.9978793859481812,-0.34386518597602844,0.016946017742156982,0.46156972646713257,-2.0,-1.0,68.0,0.0,0.0,-0.0005702730850316584,-0.0001195394215756096,0.0001513812894700095,-0.003318243892863393,-0.0001570091408211738,0.0010763390455394983,-0.21886593103408813,-0.21460355818271637,-0.010706217959523201,0.00020346595556475222,0.0015598594909533858,4.428624833963113e-06,0.00022616321803070605,3.6527860164642334,10.0,0.0,7000.0,7000.0,7000.0,7000.0,32.766,32.766,1.3800000000000001,32.766,32.766,2023.3709716796875,809.531005859375,29.58025360107422,,False,
1783648141.7109659,2026-07-09T18:49:01,12232,20260709_184855,,,,,,arming,,,,,,,,,False,-0.008032339625060558,-0.0068124583922326565,0.9968566298484802,-1.190435528755188,1.4409197568893433,0.17629548907279968,0.0,0.0,75.0,0.0,0.0,-0.00026237606653012335,0.0005348770646378398,0.00010647172894096002,-0.0009568401728756726,0.003802077379077673,0.0007788615766912699,-0.27371859550476074,-0.25003883242607117,-0.009440730325877666,0.00020346595556475222,0.0015598594909533858,4.428624833963113e-06,0.00022616321803070605,3.6527860164642334,10.0,0.0,7000.0,7000.0,7000.0,7000.0,32.766,32.766,1.3800000000000001,32.766,32.766,2023.3709716796875,809.531005859375,29.58025360107422,,False,
1783648141.7212324,2026-07-09T18:49:01,12238,20260709_184855,,,,,,arming,,,,,,,,,False,-0.014406513422727585,-0.01240542996674776,0.9995923042297363,0.6950176954269409,-0.921861469745636,0.8192748427391052,4.0,0.0,48.0,0.0,0.0,-0.00026237606653012335,0.0005348770646378398,0.00010647172894096002,-0.0009568401728756726,0.003802077379077673,0.0007788615766912699,-0.27371859550476074,-0.25003883242607117,-0.009440730325877666,0.0001207966633955948,0.0009433121304027736,2.8015645057166694e-06,0.00016949663404375315,3.647507429122925,10.0,0.0,7000.0,7000.0,7000.0,7000.0,32.766,32.766,1.3800000000000001,0.401,32.766,2023.2725830078125,809.5398559570312,29.588783264160156,,False,
1783648141.7313845,2026-07-09T18:49:01,12252,20260709_184855,,,,,,arming,,,,,,,,,False,-0.004099373240023851,-0.000950442161411047,0.9936915040016174,-0.6639775633811951,1.0326026678085327,0.04246889799833298,-1.0,1.0,72.0,0.0,0.0,-0.000619986210949719,-0.0004971169400960207,0.0001328119687968865,-0.0033577207941561937,-0.0033651981502771378,0.0009553111740387976,-0.17989198863506317,-0.21609191596508026,-0.006746620871126652,0.0001207966633955948,0.0009433121304027736,2.8015645057166694e-06,0.00016949663404375315,3.647507429122925,10.0,0.0,7000.0,7000.0,7000.0,7000.0,32.766,32.766,1.3800000000000001,0.401,32.766,2023.2725830078125,809.5398559570312,29.588783264160156,,False,
1783648141.7415392,2026-07-09T18:49:01,12258,20260709_184855,,,,,,arming,,,,,,,,,False,-0.008876059204339981,-0.008104710839688778,1.0107848644256592,0.5815982818603516,-1.395097017288208,-0.22953864932060242,-2.0,-1.0,70.0,0.0,0.0,-0.000619986210949719,-0.0004971169400960207,0.0001328119687968865,-0.0033577207941561937,-0.0033651981502771378,0.0009553111740387976,-0.17989198863506317,-0.21609191596508026,-0.006746620871126652,0.0001207966633955948,0.0009433121304027736,2.8015645057166694e-06,0.00016949663404375315,3.647507429122925,10.0,0.0,7000.0,7000.0,7000.0,7000.0,32.766,32.766,1.3800000000000001,0.401,32.766,2023.2725830078125,809.5398559570312,29.588783264160156,,False,
