pc_time_s,pc_time_iso,cf_time_ms,session_id,motif_id,motif_type,motif_phase,rep_index,motif_param_json,flight_phase,cmd_vx_m_s,cmd_vy_m_s,cmd_yaw_rate_deg_s,cmd_height_m,cmd_vx_raw_m_s,cmd_vy_raw_m_s,cmd_yaw_rate_raw_deg_s,cmd_height_raw_m,safety_override_active,acc_x_g,acc_y_g,acc_z_g,gyro_x_dps,gyro_y_dps,gyro_z_dps,flow_delta_x_px,flow_delta_y_px,flow_squal,zrange_mm,zrange_m,x_m,y_m,z_m,vx_m_s,vy_m_s,vz_m_s,roll_deg,pitch_deg,yaw_deg,kalman_state_z_m,kalman_state_pz,kalman_var_z,kalman_var_pz,battery_v,battery_level_pct,pm_state,motor_m1,motor_m2,motor_m3,motor_m4,range_front_m,range_back_m,range_left_m,range_right_m,range_up_m,baro_asl_m,baro_pressure_hpa,baro_temp_c,safety_flag,should_land,event
1783700196.0629609,2026-07-10T09:16:36,,20260710_091631,,,,,,ground_idle,,,,,,,,,False,,,,,,,,,,,,,,,,,,,,,,,,,,,,,,,,,,,,,,,,,False,
1783700196.0731,2026-07-10T09:16:36,,20260710_091631,,,,,,ground_idle,,,,,,,,,False,,,,,,,,,,,,,,,,,,,,,,,,,,,,,,,,,,,,,,,,,False,
1783700196.0832057,2026-07-10T09:16:36,418165,20260710_091631,,,,,,ground_idle,,,,,,,,,False,-0.014687812887132168,-0.007913874462246895,0.9994516372680664,0.1298249512910843,0.011865530163049698,0.10353781282901764,0.0,0.0,84.0,23.0,0.023,,,,,,,,,,,,,,,,,,,,,,,,,,,,,,False,
1783700196.0933084,2026-07-10T09:16:36,418175,20260710_091631,,,,,,ground_idle,,,,,,,,,False,-0.011983342468738556,-0.006733662914484739,1.001983404159546,-0.07535148411989212,-0.19238057732582092,0.09482815116643906,2.0,-1.0,88.0,23.0,0.023,-0.2371709644794464,0.6677260994911194,0.022951314225792885,0.0016439505852758884,-0.00343289109878242,-0.009226500056684017,-0.30156978964805603,-0.617159903049469,43.11790084838867,,,,,,,,,,,,,,,,,,,,,False,
1783700196.1034226,2026-07-10T09:16:36,418185,20260710_091631,,,,,,ground_idle,,,,,,,,,False,-0.011858210898935795,-0.006318981293588877,0.9994933605194092,-0.29080867767333984,-0.03144025430083275,0.14445874094963074,-2.0,0.0,89.0,23.0,0.023,-0.2371709644794464,0.6677260994911194,0.022951314225792885,0.0016439505852758884,-0.00343289109878242,-0.009226500056684017,-0.30156978964805603,-0.617159903049469,43.11790084838867,,,,,,,,,,,,,,,,,,,,,False,
1783700196.1135318,2026-07-10T09:16:36,418195,20260710_091631,,,,,,ground_idle,,,,,,,,,False,-0.013843389227986336,-0.007781353313475847,0.9972673654556274,-0.027786962687969208,-0.03287719935178757,-0.2252248078584671,1.0,0.0,81.0,23.0,0.023,-0.23738396167755127,0.6679633259773254,0.022770557552576065,0.00040973981958813965,-0.00261324318125844,-0.009053359739482403,-0.31409910321235657,-0.6143585443496704,43.034690856933594,,,,,,,,,,,,,,,,,,,,,False,
1783700196.123643,2026-07-10T09:16:36,418205,20260710_091631,,,,,,ground_idle,,,,,,,,,False,-0.01293986663222313,-0.00681451428681612,0.998505175113678,0.272611528635025,0.18232303857803345,-0.16100269556045532,0.0,0.0,79.0,25.0,0.025,-0.23738396167755127,0.6679633259773254,0.022770557552576065,0.00040973981958813965,-0.00261324318125844,-0.009053359739482403,-0.31409910321235657,-0.6143585443496704,43.034690856933594,0.023634130135178566,-0.004198906011879444,2.9816847018082626e-06,0.00017458089860156178,3.7266862392425537,10.0,0.0,0.0,0.0,0.0,0.0,32.766,1.254,0.214,32.766,2.856,,,,,False,
1783700196.1337738,2026-07-10T09:16:36,418215,20260710_091631,,,,,,ground_idle,,,,,,,,,False,-0.011278427205979824,-0.00558085273951292,0.9997137784957886,-0.12015629559755325,0.08263891190290451,0.0831565409898758,0.0,2.0,87.0,25.0,0.025,-0.237800732254982,0.6675614714622498,0.023633789271116257,-0.0017175829270854592,-0.004812184255570173,-0.004165935330092907,-0.3149870038032532,-0.5916815996170044,42.94874572753906,0.023634130135178566,-0.004198906011879444,2.9816847018082626e-06,0.00017458089860156178,3.7266862392425537,10.0,0.0,0.0,0.0,0.0,0.0,32.766,1.254,0.214,32.766,2.856,,,,,False,
1783700196.1439877,2026-07-10T09:16:36,418225,20260710_091631,,,,,,ground_idle,,,,,,,,,False,-0.010474440641701221,-0.0049348026514053345,0.9989421367645264,0.006160605698823929,0.20592188835144043,-0.017567066475749016,0.0,0.0,83.0,25.0,0.025,-0.237800732254982,0.6675614714622498,0.023633789271116257,-0.0017175829270854592,-0.004812184255570173,-0.004165935330092907,-0.3149870038032532,-0.5916815996170044,42.94874572753906,0.023634130135178566,-0.004198906011879444,2.9816847018082626e-06,0.00017458089860156178,3.7266862392425537,10.0,0.0,0.0,0.0,0.0,0.0,32.766,1.254,0.214,32.766,2.856,,,,,False,
1783700196.1541352,2026-07-10T09:16:36,418237,20260710_091631,,,,,,ground_idle,,,,,,,,,False,-0.012947778217494488,-0.005418933462351561,0.9987720847129822,0.12149751931428909,-0.011018547229468822,0.051406148821115494,0.0,-1.0,89.0,25.0,0.025,-0.2380095273256302,0.6677543520927429,0.02354966476559639,-0.002711667213588953,-0.0036931363865733147,-0.00429499102756381,-0.32713785767555237,-0.5942307710647583,42.86429214477539,0.023634130135178566,-0.004198906011879444,2.9816847018082626e-06,0.00017458089860156178,3.7266862392425537,10.0,0.0,0.0,0.0,0.0,0.0,32.766,1.254,0.214,32.766,2.856,,,,,False,
1783700196.1642883,2026-07-10T09:16:36,418245,20260710_091631,,,,,,ground_idle,,,,,,,,,False,-0.013523592613637447,-0.005739210639148951,0.999509871006012,-0.08143319934606552,0.25823548436164856,-0.09444331377744675,0.0,-1.0,89.0,25.0,0.025,-0.2380095273256302,0.6677543520927429,0.02354966476559639,-0.002711667213588953,-0.0036931363865733147,-0.00429499102756381,-0.32713785767555237,-0.5942307710647583,42.86429214477539,0.023634130135178566,-0.004198906011879444,2.9816847018082626e-06,0.00017458089860156178,3.7266862392425537,10.0,0.0,0.0,0.0,0.0,0.0,32.766,1.254,0.214,32.766,2.856,,,,,False,
1783700196.1744146,2026-07-10T09:16:36,418255,20260710_091631,,,,,,ground_idle,,,,,,,,,False,-0.013523592613637447,-0.005739210639148951,0.999509871006012,-0.08143319934606552,0.25823548436164856,-0.09444331377744675,0.0,0.0,90.0,25.0,0.025,-0.23779331147670746,0.6679452657699585,0.024084866046905518,-0.0017305483343079686,-0.0025436284486204386,-0.001395353116095066,-0.32631415128707886,-0.6066905856132507,42.780452728271484,0.024070657789707184,-0.0014843738172203302,3.0651954148197547e-06,0.0001797492295736447,3.7266862392425537,10.0,0.0,0.0,0.0,0.0,0.0,32.766,1.254,0.214,32.766,2.856,2018.8927001953125,809.9290161132812,28.676015853881836,,False,
1783700196.1845338,2026-07-10T09:16:36,418267,20260710_091631,,,,,,ground_idle,,,,,,,,,False,-0.01097671315073967,-0.0051140496507287025,0.998175323009491,-0.004582620691508055,-0.021179070696234703,-0.03415071964263916,-1.0,0.0,90.0,25.0,0.025,-0.23779331147670746,0.6679452657699585,0.024084866046905518,-0.0017305483343079686,-0.0025436284486204386,-0.001395353116095066,-0.32631415128707886,-0.6066905856132507,42.780452728271484,0.024070657789707184,-0.0014843738172203302,3.0651954148197547e-06,0.0001797492295736447,3.7266862392425537,10.0,0.0,0.0,0.0,0.0,0.0,32.766,1.254,0.214,32.766,2.856,2018.8927001953125,809.9290161132812,28.676015853881836,,False,
1783700196.1946495,2026-07-10T09:16:36,418277,20260710_091631,,,,,,ground_idle,,,,,,,,,False,-0.011464405804872513,-0.006841463036835194,0.9982105493545532,0.018530094996094704,-0.07890449464321136,0.08751830458641052,0.0,0.0,85.0,25.0,0.025,-0.2375674545764923,0.6677461266517639,0.02405695989727974,-0.000845471688080579,-0.0034548023249953985,-0.0016035176813602448,-0.3157500624656677,-0.6079089641571045,42.695560455322266,0.024070657789707184,-0.0014843738172203302,3.0651954148197547e-06,0.0001797492295736447,3.7266862392425537,10.0,0.0,0.0,0.0,0.0,0.0,32.766,1.254,0.214,32.766,2.856,2018.8927001953125,809.9290161132812,28.676015853881836,,False,
1783700196.2047675,2026-07-10T09:16:36,418287,20260710_091631,,,,,,ground_idle,,,,,,,,,False,-0.012315678410232067,-0.005477432161569595,0.9988374710083008,0.038311902433633804,-0.00597078911960125,-0.02905885875225067,0.0,0.0,81.0,25.0,0.025,-0.2375674545764923,0.6677461266517639,0.02405695989727974,-0.000845471688080579,-0.0034548023249953985,-0.0016035176813602448,-0.3157500624656677,-0.6079089641571045,42.695560455322266,0.024070657789707184,-0.0014843738172203302,3.0651954148197547e-06,0.0001797492295736447,3.7266862392425537,10.0,0.0,0.0,0.0,0.0,0.0,32.766,1.254,0.214,32.766,2.856,2018.8927001953125,809.9290161132812,28.676015853881836,,False,
1783700196.2148967,2026-07-10T09:16:36,418297,20260710_091631,,,,,,ground_idle,,,,,,,,,False,-0.013444559648633003,-0.0055032409727573395,0.9987338185310364,0.4433567523956299,-0.08883993327617645,-0.07292843610048294,0.0,0.0,76.0,24.0,0.024,-0.2375853955745697,0.6676756143569946,0.02402126044034958,-0.0009228325798176229,-0.0036605510395020247,-0.0019504164811223745,-0.3163951337337494,-0.6056636571884155,42.61322784423828,0.024070657789707184,-0.0014843738172203302,3.0651954148197547e-06,0.0001797492295736447,3.7266862392425537,10.0,0.0,0.0,0.0,0.0,0.0,32.766,1.254,0.214,32.766,2.856,2018.8927001953125,809.9290161132812,28.676015853881836,,False,
1783700196.2250113,2026-07-10T09:16:36,418307,20260710_091631,,,,,,ground_idle,,,,,,,,,False,-0.011552081443369389,-0.004602860659360886,0.9975565075874329,-0.30984216928482056,-0.12674647569656372,0.041715290397405624,0.0,0.0,83.0,24.0,0.024,-0.2375853955745697,0.6676756143569946,0.02402126044034958,-0.0009228325798176229,-0.0036605510395020247,-0.0019504164811223745,-0.3163951337337494,-0.6056636571884155,42.61322784423828,0.02397966757416725,-0.0022125244140625,2.9816867481713416e-06,0.00017458140791859478,3.7266862392425537,10.0,0.0,0.0,0.0,0.0,0.0,0.296,1.2550000000000001,0.214,32.766,2.828,2018.8927001953125,809.9290161132812,28.676015853881836,,False,
1783700196.235126,2026-07-10T09:16:36,418317,20260710_091631,,,,,,ground_idle,,,,,,,,,False,-0.012347389943897724,-0.006413539405912161,0.9974622130393982,-0.158101886510849,-0.666303813457489,-0.07807035744190216,0.0,-1.0,88.0,24.0,0.024,-0.23760701715946198,0.6675993800163269,0.02397966757416725,-0.0012765203136950731,-0.003973211627453566,-0.0021630895789712667,-0.31298577785491943,-0.6051712036132812,42.528507232666016,0.02397966757416725,-0.0022125244140625,2.9816867481713416e-06,0.00017458140791859478,3.7266862392425537,10.0,0.0,0.0,0.0,0.0,0.0,0.296,1.2550000000000001,0.214,32.766,2.828,2018.8927001953125,809.9290161132812,28.676015853881836,,False,
1783700196.24525,2026-07-10T09:16:36,418325,20260710_091631,,,,,,ground_idle,,,,,,,,,False,-0.013282892294228077,-0.0032385187223553658,0.9980051517486572,0.048251066356897354,-0.10849779099225998,0.041294462978839874,0.0,-1.0,88.0,24.0,0.024,-0.23760701715946198,0.6675993800163269,0.02397966757416725,-0.0012765203136950731,-0.003973211627453566,-0.0021630895789712667,-0.31298577785491943,-0.6051712036132812,42.528507232666016,0.02397966757416725,-0.0022125244140625,2.9816867481713416e-06,0.00017458140791859478,3.7266862392425537,10.0,0.0,0.0,0.0,0.0,0.0,0.296,1.2550000000000001,0.214,32.766,2.828,2018.8927001953125,809.9290161132812,28.676015853881836,,False,
1783700196.255379,2026-07-10T09:16:36,418337,20260710_091631,,,,,,ground_idle,,,,,,,,,False,-0.012330946512520313,-0.005145711824297905,0.9986459016799927,0.22678913176059723,0.36041271686553955,-0.01459579635411501,-1.0,1.0,85.0,24.0,0.024,-0.23759935796260834,0.6676446795463562,0.02393285185098648,-0.0013540472136810422,-0.0036225959192961454,-0.002627449808642268,-0.3184715211391449,-0.6027793884277344,42.44562530517578,0.02397966757416725,-0.0022125244140625,2.9816867481713416e-06,0.00017458140791859478,3.7266862392425537,10.0,0.0,0.0,0.0,0.0,0.0,0.296,1.2550000000000001,0.214,32.766,2.828,2018.8927001953125,809.9290161132812,28.676015853881836,,False,
1783700196.2655363,2026-07-10T09:16:36,418347,20260710_091631,,,,,,ground_idle,,,,,,,,,False,-0.011710865423083305,-0.005800938233733177,1.000512719154358,0.25198569893836975,0.20410242676734924,-0.07811564952135086,0.0,-2.0,87.0,24.0,0.024,-0.23759935796260834,0.6676446795463562,0.02393285185098648,-0.0013540472136810422,-0.0036225959192961454,-0.002627449808642268,-0.3184715211391449,-0.6027793884277344,42.44562530517578,0.02397966757416725,-0.0022125244140625,2.9816867481713416e-06,0.00017458140791859478,3.7266862392425537,10.0,0.0,0.0,0.0,0.0,0.0,0.296,1.2550000000000001,0.214,32.766,2.828,2018.8927001953125,809.9290161132812,28.676015853881836,,False,
1783700196.2756815,2026-07-10T09:16:36,418355,20260710_091631,,,,,,ground_idle,,,,,,,,,False,-0.011246216483414173,-0.004443654790520668,1.002040982246399,-0.26541316509246826,0.16783356666564941,0.0019045519875362515,0.0,-2.0,87.0,24.0,0.024,-0.23754499852657318,0.6681182384490967,0.023918166756629944,-0.0013706957688555121,-0.0011562876170501113,-0.002729753963649273,-0.3291998505592346,-0.6198931336402893,42.36452102661133,0.023891320452094078,-0.0026583257131278515,3.065189957851544e-06,0.0001797481090761721,3.7266862392425537,10.0,0.0,0.0,0.0,0.0,0.0,0.296,1.2550000000000001,0.214,32.766,2.828,2018.8433837890625,809.9334106445312,28.688024520874023,,False,
1783700196.2858346,2026-07-10T09:16:36,418367,20260710_091631,,,,,,ground_idle,,,,,,,,,False,-0.011589419096708298,-0.0071305823512375355,0.9994986653327942,-0.0050675650127232075,-0.1217690259218216,-0.01464741863310337,0.0,-1.0,90.0,24.0,0.024,-0.23754499852657318,0.6681182384490967,0.023918166756629944,-0.0013706957688555121,-0.0011562876170501113,-0.002729753963649273,-0.3291998505592346,-0.6198931336402893,42.36452102661133,0.023891320452094078,-0.0026583257131278515,3.065189957851544e-06,0.0001797481090761721,3.7266862392425537,10.0,0.0,0.0,0.0,0.0,0.0,0.296,1.2550000000000001,0.214,32.766,2.828,2018.8433837890625,809.9334106445312,28.688024520874023,,False,
1783700196.296053,2026-07-10T09:16:36,418377,20260710_091631,,,,,,ground_idle,,,,,,,,,False,-0.012681358493864536,-0.006418311968445778,0.9997446537017822,0.16911596059799194,0.3206042945384979,-0.009847475215792656,0.0,-1.0,85.0,24.0,0.024,-0.2377558797597885,0.667931318283081,0.02386704832315445,-0.00227695913054049,-0.0018447020556777716,-0.002479100599884987,-0.3300187587738037,-0.6138373017311096,42.28179931640625,0.023891320452094078,-0.0026583257131278515,3.065189957851544e-06,0.0001797481090761721,3.7266862392425537,10.0,0.0,0.0,0.0,0.0,0.0,0.296,1.2550000000000001,0.214,32.766,2.828,2018.8433837890625,809.9334106445312,28.688024520874023,,False,
1783700196.306194,2026-07-10T09:16:36,418387,20260710_091631,,,,,,ground_idle,,,,,,,,,False,-0.012186030857264996,-0.006473067682236433,0.9997485280036926,0.08377144485712051,0.19957518577575684,-0.060486871749162674,1.0,0.0,83.0,24.0,0.024,-0.2377558797597885,0.667931318283081,0.02386704832315445,-0.00227695913054049,-0.0018447020556777716,-0.002479100599884987,-0.3300187587738037,-0.6138373017311096,42.28179931640625,0.023891320452094078,-0.0026583257131278515,3.065189957851544e-06,0.0001797481090761721,3.7266862392425537,10.0,0.0,0.0,0.0,0.0,0.0,0.296,1.2550000000000001,0.214,32.766,2.828,2018.8433837890625,809.9334106445312,28.688024520874023,,False,
1783700196.316333,2026-07-10T09:16:36,418397,20260710_091631,,,,,,ground_idle,,,,,,,,,False,-0.009800635278224945,-0.004525713622570038,0.9994698166847229,-0.15616244077682495,-0.06048291176557541,-0.11200398951768875,-1.0,1.0,81.0,27.0,0.027,-0.23733386397361755,0.6679284572601318,0.02381744235754013,-0.00014891564205754548,-0.00203476520255208,-0.0025597824715077877,-0.31844398379325867,-0.6247827410697937,42.19921875,0.023891320452094078,-0.0026583257131278515,3.065189957851544e-06,0.0001797481090761721,3.7266862392425537,10.0,0.0,0.0,0.0,0.0,0.0,0.296,1.2550000000000001,0.214,32.766,2.828,2018.8433837890625,809.9334106445312,28.688024520874023,,False,
1783700196.3264732,2026-07-10T09:16:36,418407,20260710_091631,,,,,,ground_idle,,,,,,,,,False,-0.010889687575399876,-0.005974280182272196,0.999430775642395,-0.08872707933187485,0.2614630460739136,0.02044949308037758,0.0,0.0,89.0,27.0,0.027,-0.23733386397361755,0.6679284572601318,0.02381744235754013,-0.00014891564205754548,-0.00203476520255208,-0.0025597824715077877,-0.31844398379325867,-0.6247827410697937,42.19921875,0.02521366812288761,0.004566053859889507,2.9816978894814383e-06,0.00017457905050832778,3.721407651901245,10.0,0.0,0.0,0.0,0.0,0.0,32.766,1.256,0.214,32.766,2.834,2018.8433837890625,809.9334106445312,28.688024520874023,,False,
1783700196.336612,2026-07-10T09:16:36,418417,20260710_091631,,,,,,ground_idle,,,,,,,,,False,-0.01354988943785429,-0.005984211340546608,0.9989926218986511,-0.08235136419534683,-0.4275759160518646,0.018878985196352005,1.0,0.0,86.0,27.0,0.027,-0.23775139451026917,0.6679479479789734,0.02521366812288761,-0.002060976345092058,-0.001707994844764471,0.004594356752932072,-0.32798224687576294,-0.6134817600250244,42.116790771484375,0.02521366812288761,0.004566053859889507,2.9816978894814383e-06,0.00017457905050832778,3.721407651901245,10.0,0.0,0.0,0.0,0.0,0.0,32.766,1.256,0.214,32.766,2.834,2018.8433837890625,809.9334106445312,28.688024520874023,,False,
1783700196.346778,2026-07-10T09:16:36,418427,20260710_091631,,,,,,ground_idle,,,,,,,,,False,-0.013905367814004421,-0.006064240820705891,1.0003739595413208,-0.1624748408794403,-0.3227822780609131,0.06134750694036484,-1.0,1.0,84.0,27.0,0.027,-0.23775139451026917,0.6679479479789734,0.02521366812288761,-0.002060976345092058,-0.001707994844764471,0.004594356752932072,-0.32798224687576294,-0.6134817600250244,42.116790771484375,0.02521366812288761,0.004566053859889507,2.9816978894814383e-06,0.00017457905050832778,3.721407651901245,10.0,0.0,0.0,0.0,0.0,0.0,32.766,1.256,0.214,32.766,2.834,2018.8433837890625,809.9334106445312,28.688024520874023,,False,
1783700196.3570137,2026-07-10T09:16:36,418437,20260710_091631,,,,,,ground_idle,,,,,,,,,False,-0.01248231902718544,-0.005420831497758627,1.0006154775619507,0.04077865183353424,-0.32244014739990234,0.060158871114254,0.0,0.0,81.0,26.0,0.026,-0.23794817924499512,0.6677706837654114,0.025304529815912247,-0.003054983215406537,-0.00259756064042449,0.0044511910527944565,-0.3293899595737457,-0.6047905087471008,42.03471374511719,0.02521366812288761,0.004566053859889507,2.9816978894814383e-06,0.00017457905050832778,3.721407651901245,10.0,0.0,0.0,0.0,0.0,0.0,32.766,1.256,0.214,32.766,2.834,2018.8433837890625,809.9334106445312,28.688024520874023,,False,
1783700196.367174,2026-07-10T09:16:36,418450,20260710_091631,,,,,,ground_idle,,,,,,,,,False,-0.013524219393730164,-0.005390720441937447,0.9983341693878174,0.03550861030817032,-0.021076204255223274,-0.07578419893980026,0.0,-1.0,85.0,26.0,0.026,-0.23775003850460052,0.6679462194442749,0.025666432455182076,-0.002179285977035761,-0.0017966193845495582,0.005891294218599796,-0.3293899595737457,-0.6047905087471008,42.03471374511719,0.02521366812288761,0.004566053859889507,2.9816978894814383e-06,0.00017457905050832778,3.721407651901245,10.0,0.0,0.0,0.0,0.0,0.0,32.766,1.256,0.214,32.766,2.834,2018.8433837890625,809.9334106445312,28.688024520874023,,False,
1783700196.3773282,2026-07-10T09:16:36,418457,20260710_091631,,,,,,ground_idle,,,,,,,,,False,-0.01190584059804678,-0.006446125451475382,0.9983434081077576,0.15893250703811646,-0.07051315903663635,0.408877432346344,0.0,-1.0,88.0,26.0,0.026,-0.23775003850460052,0.6679462194442749,0.025666432455182076,-0.002179285977035761,-0.0017966193845495582,0.005891294218599796,-0.33059459924697876,-0.6121532917022705,41.95265579223633,0.025724632665514946,0.005716716405004263,3.0652106488560094e-06,0.0001797485165297985,3.7266862392425537,10.0,0.0,0.0,0.0,0.0,0.0,32.766,1.256,0.214,32.766,2.834,2018.7559814453125,809.9415283203125,28.69921112060547,,False,
1783700196.3874793,2026-07-10T09:16:36,418470,20260710_091631,,,,,,ground_idle,,,,,,,,,False,-0.011649413034319878,-0.005918294657021761,0.996740460395813,0.17201659083366394,-0.15553922951221466,0.12610387802124023,0.0,2.0,84.0,26.0,0.026,-0.2379312664270401,0.667772650718689,0.025781894102692604,-0.0031482696067541838,-0.002765616634860635,0.005584608297795057,-0.33059459924697876,-0.6121532917022705,41.95265579223633,0.025724632665514946,0.005716716405004263,3.0652106488560094e-06,0.0001797485165297985,3.7266862392425537,10.0,0.0,0.0,0.0,0.0,0.0,32.766,1.256,0.214,32.766,2.834,2018.7559814453125,809.9415283203125,28.69921112060547,,False,
1783700196.3977375,2026-07-10T09:16:36,418477,20260710_091631,,,,,,ground_idle,,,,,,,,,False,-0.011497165076434612,-0.007242827210575342,0.9979056119918823,0.03650723770260811,-0.1688162386417389,0.07034267485141754,0.0,0.0,85.0,26.0,0.026,-0.2379312664270401,0.667772650718689,0.025781894102692604,-0.0031482696067541838,-0.002765616634860635,0.005584608297795057,-0.3288435935974121,-0.6016083359718323,41.871604919433594,0.025724632665514946,0.005716716405004263,3.0652106488560094e-06,0.0001797485165297985,3.7266862392425537,10.0,0.0,0.0,0.0,0.0,0.0,32.766,1.256,0.214,32.766,2.834,2018.7559814453125,809.9415283203125,28.69921112060547,,False,
1783700196.407943,2026-07-10T09:16:36,418491,20260710_091631,,,,,,ground_idle,,,,,,,,,False,-0.012066180817782879,-0.006041788961738348,0.9991915822029114,-0.008838646113872528,-0.2693634033203125,-0.09457762539386749,1.0,-1.0,75.0,26.0,0.026,-0.23755894601345062,0.6677284836769104,0.02588995173573494,-0.00110310735180974,-0.0029729711823165417,0.005110088270157576,-0.31699204444885254,-0.6105382442474365,41.78935623168945,0.025724632665514946,0.005716716405004263,3.0652106488560094e-06,0.0001797485165297985,3.7266862392425537,10.0,0.0,0.0,0.0,0.0,0.0,32.766,1.256,0.214,32.766,2.834,2018.7559814453125,809.9415283203125,28.69921112060547,,False,
1783700196.4181166,2026-07-10T09:16:36,418497,20260710_091631,,,,,,ground_idle,,,,,,,,,False,-0.013850097544491291,-0.0037120203487575054,0.9999496340751648,-0.0729142278432846,0.18810774385929108,-0.04300422593951225,0.0,-1.0,76.0,24.0,0.024,-0.23755894601345062,0.6677284836769104,0.02588995173573494,-0.00110310735180974,-0.0029729711823165417,0.005110088270157576,-0.31699204444885254,-0.6105382442474365,41.78935623168945,0.025724632665514946,0.005716716405004263,3.0652106488560094e-06,0.0001797485165297985,3.7266862392425537,10.0,0.0,0.0,0.0,0.0,0.0,32.766,1.256,0.214,32.766,2.834,2018.7559814453125,809.9415283203125,28.69921112060547,,False,
1783700196.4282753,2026-07-10T09:16:36,418511,20260710_091631,,,,,,ground_idle,,,,,,,,,False,-0.011032301932573318,-0.00409225607290864,0.9996002912521362,-0.01284378208220005,-0.3572317063808441,0.16776709258556366,0.0,0.0,86.0,24.0,0.024,-0.23734980821609497,0.6678929924964905,0.02511615864932537,-0.0004302831075619906,-0.002136721508577466,0.0007061299402266741,-0.3184172213077545,-0.6176496744155884,41.70889663696289,0.02511615864932537,0.0006800179253332317,2.9816901587764733e-06,0.00017457862850278616,3.7266862392425537,10.0,0.0,0.0,0.0,0.0,0.0,0.292,1.254,0.215,32.766,32.766,2018.7559814453125,809.9415283203125,28.69921112060547,,False,
1783700196.4384365,2026-07-10T09:16:36,418517,20260710_091631,,,,,,ground_idle,,,,,,,,,False,-0.011395864188671112,-0.005783080589026213,0.9994688630104065,-0.005416218191385269,0.2855353355407715,0.015687257051467896,-1.0,1.0,88.0,24.0,0.024,-0.23734980821609497,0.6678929924964905,0.02511615864932537,-0.0004302831075619906,-0.002136721508577466,0.0007061299402266741,-0.3184172213077545,-0.6176496744155884,41.70889663696289,0.02511615864932537,0.0006800179253332317,2.9816901587764733e-06,0.00017457862850278616,3.7266862392425537,10.0,0.0,0.0,0.0,0.0,0.0,0.292,1.254,0.215,32.766,32.766,2018.7559814453125,809.9415283203125,28.69921112060547,,False,
1783700196.4485939,2026-07-10T09:16:36,418531,20260710_091631,,,,,,ground_idle,,,,,,,,,False,-0.012645669281482697,-0.007349751889705658,0.9968253970146179,0.1495557576417923,0.11257079243659973,0.07466835528612137,0.0,0.0,87.0,24.0,0.024,-0.23776204884052277,0.6679109930992126,0.025129646062850952,-0.0024383633863180876,-0.0018701952649280429,0.0006062453612685204,-0.3287821114063263,-0.6072483062744141,41.62896728515625,0.02511615864932537,0.0006800179253332317,2.9816901587764733e-06,0.00017457862850278616,3.7266862392425537,10.0,0.0,0.0,0.0,0.0,0.0,0.292,1.254,0.215,32.766,32.766,2018.7559814453125,809.9415283203125,28.69921112060547,,False,
1783700196.4587684,2026-07-10T09:16:36,418537,20260710_091631,,,,,,ground_idle,,,,,,,,,False,-0.012767039239406586,-0.005333001259714365,0.9961724281311035,0.1421455293893814,0.13603532314300537,-0.2901056110858917,1.0,0.0,79.0,24.0,0.024,-0.23776204884052277,0.6679109930992126,0.025129646062850952,-0.0024383633863180876,-0.0018701952649280429,0.0006062453612685204,-0.3287821114063263,-0.6072483062744141,41.62896728515625,0.02511615864932537,0.0006800179253332317,2.9816901587764733e-06,0.00017457862850278616,3.7266862392425537,10.0,0.0,0.0,0.0,0.0,0.0,0.292,1.254,0.215,32.766,32.766,2018.7559814453125,809.9415283203125,28.69921112060547,,False,
1783700196.4690235,2026-07-10T09:16:36,418551,20260710_091631,,,,,,ground_idle,,,,,,,,,False,-0.011717144399881363,-0.005898916628211737,1.0004655122756958,-0.038199059665203094,-0.12817887961864471,-0.10200511664152145,0.0,-1.0,76.0,24.0,0.024,-0.23734192550182343,0.6678959727287292,0.02466423250734806,-0.0004431160632520914,-0.0020125037990510464,-0.0023671453818678856,-0.3167151212692261,-0.6220471262931824,41.54811096191406,0.02511615864932537,0.0006800179253332317,2.9816901587764733e-06,0.00017457862850278616,3.7266862392425537,10.0,0.0,0.0,0.0,0.0,0.0,0.292,1.254,0.215,32.766,32.766,2018.7559814453125,809.9415283203125,28.69921112060547,,False,
1783700196.4792373,2026-07-10T09:16:36,418557,20260710_091631,,,,,,ground_idle,,,,,,,,,False,-0.011448067612946033,-0.007480544038116932,0.9972668290138245,-0.22707399725914001,-0.050986822694540024,-0.021183177828788757,0.0,0.0,85.0,24.0,0.024,-0.23734192550182343,0.6678959727287292,0.02466423250734806,-0.0004431160632520914,-0.0020125037990510464,-0.0023671453818678856,-0.3167151212692261,-0.6220471262931824,41.54811096191406,0.02464054897427559,-0.0023947004228830338,3.0651963243144564e-06,0.00017974848742596805,3.7266862392425537,10.0,0.0,0.0,0.0,0.0,0.0,0.292,1.254,0.215,32.766,32.766,2018.876220703125,809.9304809570312,28.70578384399414,,False,
1783700196.4893923,2026-07-10T09:16:36,418571,20260710_091631,,,,,,ground_idle,,,,,,,,,False,-0.01115772407501936,-0.006543608848005533,0.9989526271820068,-0.17817845940589905,-0.05067237466573715,1.611706829862669e-05,-1.0,1.0,89.0,24.0,0.024,-0.2377578169107437,0.6679101586341858,0.02461598441004753,-0.0023874989710748196,-0.00196666712872684,-0.002607921836897731,-0.3287726640701294,-0.611207902431488,41.467384338378906,0.02464054897427559,-0.0023947004228830338,3.0651963243144564e-06,0.00017974848742596805,3.7266862392425537,10.0,0.0,0.0,0.0,0.0,0.0,0.292,1.254,0.215,32.766,32.766,2018.876220703125,809.9304809570312,28.70578384399414,,False,
1783700196.4995468,2026-07-10T09:16:36,418577,20260710_091631,,,,,,ground_idle,,,,,,,,,False,-0.0100958701223135,-0.008336884900927544,1.0003745555877686,0.31877952814102173,-0.023891905322670937,0.10164197534322739,0.0,-1.0,80.0,24.0,0.024,-0.2377578169107437,0.6679101586341858,0.02461598441004753,-0.0023874989710748196,-0.00196666712872684,-0.002607921836897731,-0.3287726640701294,-0.611207902431488,41.467384338378906,0.02464054897427559,-0.0023947004228830338,3.0651963243144564e-06,0.00017974848742596805,3.7266862392425537,10.0,0.0,0.0,0.0,0.0,0.0,0.292,1.254,0.215,32.766,32.766,2018.876220703125,809.9304809570312,28.70578384399414,,False,
1783700196.5096993,2026-07-10T09:16:36,418591,20260710_091631,,,,,,ground_idle,,,,,,,,,False,-0.012121651321649551,-0.005227261688560247,0.9983046650886536,-0.2579275965690613,-0.039114538580179214,0.11119086295366287,0.0,0.0,77.0,24.0,0.024,-0.23754054307937622,0.668084979057312,0.0245633814483881,-0.0009263448300771415,-0.0011982525466009974,-0.002674589864909649,-0.32633325457572937,-0.6230273842811584,41.38664245605469,0.02464054897427559,-0.0023947004228830338,3.0651963243144564e-06,0.00017974848742596805,3.7266862392425537,10.0,0.0,0.0,0.0,0.0,0.0,0.292,1.254,0.215,32.766,32.766,2018.876220703125,809.9304809570312,28.70578384399414,,False,
1783700196.5200176,2026-07-10T09:16:36,418602,20260710_091631,,,,,,ground_idle,,,,,,,,,False,-0.01133291982114315,-0.004685177933424711,0.9989949464797974,0.0739789605140686,-0.21553178131580353,0.047584548592567444,1.0,0.0,81.0,24.0,0.024,-0.23754054307937622,0.668084979057312,0.0245633814483881,-0.0009263448300771415,-0.0011982525466009974,-0.002674589864909649,-0.32633325457572937,-0.6230273842811584,41.38664245605469,0.024265680462121964,-0.004124992992728949,2.9816860660503153e-06,0.00017458068032283336,3.7266862392425537,10.0,0.0,0.0,0.0,0.0,0.0,0.292,1.254,0.215,32.766,32.766,2018.876220703125,809.9304809570312,28.70578384399414,,False,
1783700196.530217,2026-07-10T09:16:36,418611,20260710_091631,,,,,,ground_idle,,,,,,,,,False,-0.011841760948300362,-0.0048808809369802475,0.9981817603111267,-0.15954266488552094,0.021570667624473572,-0.21090121567249298,1.0,0.0,86.0,24.0,0.024,-0.23715539276599884,0.6676658391952515,0.02426532842218876,0.000823844107799232,-0.0031327572651207447,-0.004100911319255829,-0.3062501549720764,-0.6222541332244873,41.30464553833008,0.024265680462121964,-0.004124992992728949,2.9816860660503153e-06,0.00017458068032283336,3.7266862392425537,10.0,0.0,0.0,0.0,0.0,0.0,0.295,1.243,0.212,32.766,2.848,2018.876220703125,809.9304809570312,28.70578384399414,,False,
1783700196.5403707,2026-07-10T09:16:36,418617,20260710_091631,,,,,,ground_idle,,,,,,,,,False,-0.013715207576751709,-0.004215830471366644,0.998102605342865,0.22764235734939575,0.22447384893894196,0.34910470247268677,-1.0,2.0,88.0,24.0,0.024,-0.23715539276599884,0.6676658391952515,0.02426532842218876,0.000823844107799232,-0.0031327572651207447,-0.004100911319255829,-0.3062501549720764,-0.6222541332244873,41.30464553833008,0.024265680462121964,-0.004124992992728949,2.9816860660503153e-06,0.00017458068032283336,3.7266862392425537,10.0,0.0,0.0,0.0,0.0,0.0,0.295,1.243,0.212,32.766,2.848,2018.876220703125,809.9304809570312,28.70578384399414,,False,
1783700196.550525,2026-07-10T09:16:36,418631,20260710_091631,,,,,,ground_idle,,,,,,,,,False,-0.011711763218045235,-0.005352706182748079,1.0004522800445557,0.07124920934438705,-0.1825711578130722,0.04058332368731499,0.0,-2.0,91.0,24.0,0.024,-0.23733867704868317,0.6678826808929443,0.02418344095349312,-0.00041917484486475587,-0.0018809899920597672,-0.0044215163215994835,-0.3181198835372925,-0.6248407959938049,41.22771453857422,0.024265680462121964,-0.004124992992728949,2.9816860660503153e-06,0.00017458068032283336,3.7266862392425537,10.0,0.0,0.0,0.0,0.0,0.0,0.295,1.243,0.212,32.766,2.848,2018.876220703125,809.9304809570312,28.70578384399414,,False,
1783700196.5606828,2026-07-10T09:16:36,418637,20260710_091631,,,,,,ground_idle,,,,,,,,,False,-0.013019255362451077,-0.005552567075937986,0.9981729388237,0.16264785826206207,0.1605309396982193,0.05734802410006523,-1.0,2.0,78.0,27.0,0.027,-0.23733867704868317,0.6678826808929443,0.02418344095349312,-0.00041917484486475587,-0.0018809899920597672,-0.0044215163215994835,-0.3181198835372925,-0.6248407959938049,41.22771453857422,0.024265680462121964,-0.004124992992728949,2.9816860660503153e-06,0.00017458068032283336,3.7266862392425537,10.0,0.0,0.0,0.0,0.0,0.0,0.295,1.243,0.212,32.766,2.848,2018.876220703125,809.9304809570312,28.70578384399414,,False,
1783700196.570939,2026-07-10T09:16:36,418653,20260710_091631,,,,,,ground_idle,,,,,,,,,False,-0.015819523483514786,-0.006319399457424879,0.9986425638198853,-0.2208063006401062,-0.015108059160411358,0.19104592502117157,0.0,0.0,78.0,27.0,0.027,-0.2379455417394638,0.6677210330963135,0.025286003947257996,-0.003480718471109867,-0.0026332878042012453,0.0014095749938860536,-0.32737305760383606,-0.602712869644165,41.14802169799805,0.02529953047633171,0.001246518804691732,3.065209511987632e-06,0.00017974956426769495,3.7266862392425537,10.0,0.0,0.0,0.0,0.0,0.0,0.295,1.243,0.212,32.766,2.848,2018.876220703125,809.9304809570312,28.70578384399414,,False,
1783700196.5811102,2026-07-10T09:16:36,418657,20260710_091631,,,,,,ground_idle,,,,,,,,,False,-0.012795316986739635,-0.004616823513060808,0.9982681274414062,0.09877339005470276,-0.10819937288761139,-0.005458838306367397,0.0,-1.0,86.0,27.0,0.027,-0.2379455417394638,0.6677210330963135,0.025286003947257996,-0.003480718471109867,-0.0026332878042012453,0.0014095749938860536,-0.32737305760383606,-0.602712869644165,41.14802169799805,0.02529953047633171,0.001246518804691732,3.065209511987632e-06,0.00017974956426769495,3.7266862392425537,10.0,0.0,0.0,0.0,0.0,0.0,0.295,1.243,0.212,32.766,2.848,2018.9091796875,809.927734375,28.712337493896484,,False,
1783700196.5913122,2026-07-10T09:16:36,418671,20260710_091631,,,,,,ground_idle,,,,,,,,,False,-0.011699424125254154,-0.005006774328649044,0.9986423850059509,-0.21770671010017395,-0.20080170035362244,-0.06409011781215668,0.0,1.0,80.0,27.0,0.027,-0.23792532086372375,0.6677427887916565,0.025312623009085655,-0.003601366188377142,-0.002713783411309123,0.0011407291749492288,-0.32808804512023926,-0.6061851382255554,41.068058013916016,0.02529953047633171,0.001246518804691732,3.065209511987632e-06,0.00017974956426769495,3.7266862392425537,10.0,0.0,0.0,0.0,0.0,0.0,0.295,1.243,0.212,32.766,2.848,2018.9091796875,809.927734375,28.712337493896484,,False,
1783700196.6015472,2026-07-10T09:16:36,418677,20260710_091631,,,,,,ground_idle,,,,,,,,,False,-0.012778421863913536,-0.007385019678622484,0.9993116855621338,0.05610429495573044,-0.5837090611457825,0.3003919720649719,1.0,-1.0,85.0,27.0,0.027,-0.23792532086372375,0.6677427887916565,0.025312623009085655,-0.003601366188377142,-0.002713783411309123,0.0011407291749492288,-0.32808804512023926,-0.6061851382255554,41.068058013916016,0.02529953047633171,0.001246518804691732,3.065209511987632e-06,0.00017974956426769495,3.7266862392425537,10.0,0.0,0.0,0.0,0.0,0.0,0.295,1.243,0.212,32.766,2.848,2018.9091796875,809.927734375,28.712337493896484,,False,
1783700196.6118305,2026-07-10T09:16:36,418691,20260710_091631,,,,,,ground_idle,,,,,,,,,False,-0.013162615709006786,-0.007454587146639824,0.9960953593254089,-0.2402995228767395,-0.15252232551574707,0.03272134065628052,0.0,-1.0,78.0,27.0,0.027,-0.23735100030899048,0.6678953766822815,0.02533610351383686,-0.0006715594208799303,-0.0019991151057183743,0.0009404554730281234,-0.32027098536491394,-0.6247159838676453,40.988037109375,0.02529953047633171,0.001246518804691732,3.065209511987632e-06,0.00017974956426769495,3.7266862392425537,10.0,0.0,0.0,0.0,0.0,0.0,0.295,1.243,0.212,32.766,2.848,2018.9091796875,809.927734375,28.712337493896484,,False,
1783700196.6221652,2026-07-10T09:16:36,418704,20260710_091631,,,,,,ground_idle,,,,,,,,,False,-0.012986261397600174,-0.007265945430845022,0.998583972454071,-0.0589836984872818,-0.2588449716567993,-0.3828189969062805,0.0,0.0,78.0,27.0,0.027,-0.23735100030899048,0.6678953766822815,0.02533610351383686,-0.0006715594208799303,-0.0019991151057183743,0.0009404554730281234,-0.32027098536491394,-0.6247159838676453,40.988037109375,0.026096433401107788,0.004152591805905104,2.981703346449649e-06,0.00017457958892919123,3.7266862392425537,10.0,0.0,0.0,0.0,0.0,0.0,0.291,1.256,0.212,32.766,2.841,2018.9091796875,809.927734375,28.712337493896484,,False,
1783700196.632334,2026-07-10T09:16:36,418711,20260710_091631,,,,,,ground_idle,,,,,,,,,False,-0.01166657917201519,-0.006095054559409618,0.9990845322608948,-0.26618340611457825,-0.6404213309288025,-0.062428705394268036,1.0,0.0,89.0,27.0,0.027,-0.2371864765882492,0.6676835417747498,0.026096178218722343,0.0001317901915172115,-0.003321578959003091,0.0041831135749816895,-0.3115362524986267,-0.6196276545524597,40.90580749511719,0.026096433401107788,0.004152591805905104,2.981703346449649e-06,0.00017457958892919123,3.7266862392425537,10.0,0.0,0.0,0.0,0.0,0.0,0.291,1.256,0.212,32.766,2.841,2018.9091796875,809.927734375,28.712337493896484,,False,
1783700196.6424954,2026-07-10T09:16:36,418725,20260710_091631,,,,,,ground_idle,,,,,,,,,False,-0.011107275262475014,-0.00420759804546833,0.9978368282318115,0.1486097127199173,0.12917360663414001,0.10921818017959595,-1.0,0.0,92.0,27.0,0.027,-0.2371864765882492,0.6676835417747498,0.026096178218722343,0.0001317901915172115,-0.003321578959003091,0.0041831135749816895,-0.3115362524986267,-0.6196276545524597,40.90580749511719,0.026096433401107788,0.004152591805905104,2.981703346449649e-06,0.00017457958892919123,3.7266862392425537,10.0,0.0,0.0,0.0,0.0,0.0,0.291,1.256,0.212,32.766,2.841,2018.9091796875,809.927734375,28.712337493896484,,False,
1783700196.6526623,2026-07-10T09:16:36,418735,20260710_091631,,,,,,ground_idle,,,,,,,,,False,-0.013549909926950932,-0.006993438582867384,0.999498724937439,0.06820579618215561,0.040557388216257095,0.04850693419575691,0.0,0.0,80.0,27.0,0.027,-0.23735974729061127,0.6678627133369446,0.02617887780070305,-0.0007982207462191582,-0.002347139874473214,0.003959102090448141,-0.32125142216682434,-0.61396723985672,40.82514572143555,0.026096433401107788,0.004152591805905104,2.981703346449649e-06,0.00017457958892919123,3.7266862392425537,10.0,0.0,0.0,0.0,0.0,0.0,0.291,1.256,0.212,32.766,2.841,2018.9091796875,809.927734375,28.712337493896484,,False,
1783700196.6629097,2026-07-10T09:16:36,418745,20260710_091631,,,,,,ground_idle,,,,,,,,,False,-0.015299065038561821,-0.00703144446015358,1.0008567571640015,0.19195933640003204,0.09296170622110367,-0.03740747645497322,0.0,1.0,83.0,25.0,0.025,-0.23735974729061127,0.6678627133369446,0.02617887780070305,-0.0007982207462191582,-0.002347139874473214,0.003959102090448141,-0.32125142216682434,-0.61396723985672,40.82514572143555,0.026096433401107788,0.004152591805905104,2.981703346449649e-06,0.00017457958892919123,3.7266862392425537,10.0,0.0,0.0,0.0,0.0,0.0,0.291,1.256,0.212,32.766,2.841,2018.9091796875,809.927734375,28.712337493896484,,False,
1783700196.6731403,2026-07-10T09:16:36,418755,20260710_091631,,,,,,ground_idle,,,,,,,,,False,-0.015299065038561821,-0.00703144446015358,1.0008567571640015,0.19195933640003204,0.09296170622110367,-0.03740747645497322,-1.0,0.0,80.0,25.0,0.025,-0.23772664368152618,0.6678957343101501,0.02574828639626503,-0.0027387216687202454,-0.0021714826580137014,0.0012190849520266056,-0.3315727710723877,-0.6039743423461914,40.74535369873047,0.025760961696505547,0.0012750872410833836,3.065424380110926e-06,0.0001817478914745152,3.7266862392425537,10.0,0.0,0.0,0.0,0.0,0.0,0.291,1.256,0.212,32.766,2.841,2018.9637451171875,809.9229736328125,28.72418212890625,,False,
1783700196.6833222,2026-07-10T09:16:36,418765,20260710_091631,,,,,,ground_idle,,,,,,,,,False,-0.011153124272823334,-0.00520511157810688,0.9967219233512878,0.19532248377799988,-0.2999745309352875,-0.025993401184678078,1.0,-1.0,85.0,25.0,0.025,-0.23772664368152618,0.6678957343101501,0.02574828639626503,-0.0027387216687202454,-0.0021714826580137014,0.0012190849520266056,-0.3315727710723877,-0.6039743423461914,40.74535369873047,0.025760961696505547,0.0012750872410833836,3.065424380110926e-06,0.0001817478914745152,3.7266862392425537,10.0,0.0,0.0,0.0,0.0,0.0,0.291,1.256,0.212,32.766,2.841,2018.9637451171875,809.9229736328125,28.72418212890625,,False,
1783700196.693478,2026-07-10T09:16:36,418775,20260710_091631,,,,,,ground_idle,,,,,,,,,False,-0.01163756288588047,-0.007545848377048969,0.9970369935035706,0.42430099844932556,0.09480903297662735,-0.16968175768852234,0.0,2.0,79.0,25.0,0.025,-0.23773591220378876,0.6675456762313843,0.025775093585252762,-0.003042687429115176,-0.004211985971778631,0.0013982872478663921,-0.32112759351730347,-0.5958806276321411,40.66398620605469,0.025760961696505547,0.0012750872410833836,3.065424380110926e-06,0.0001817478914745152,3.7266862392425537,10.0,0.0,0.0,0.0,0.0,0.0,0.291,1.256,0.212,32.766,2.841,2018.9637451171875,809.9229736328125,28.72418212890625,,False,
1783700196.7036278,2026-07-10T09:16:36,418785,20260710_091631,,,,,,ground_idle,,,,,,,,,False,-0.012666787952184677,-0.007672542706131935,0.9992799162864685,0.09494458884000778,-0.1333085149526596,-0.12898176908493042,-1.0,0.0,84.0,25.0,0.025,-0.23773591220378876,0.6675456762313843,0.025775093585252762,-0.003042687429115176,-0.004211985971778631,0.0013982872478663921,-0.32112759351730347,-0.5958806276321411,40.66398620605469,0.025760961696505547,0.0012750872410833836,3.065424380110926e-06,0.0001817478914745152,3.7266862392425537,10.0,0.0,0.0,0.0,0.0,0.0,0.291,1.256,0.212,32.766,2.841,2018.9637451171875,809.9229736328125,28.72418212890625,,False,
1783700196.7137809,2026-07-10T09:16:36,418795,20260710_091631,,,,,,ground_idle,,,,,,,,,False,-0.013226092793047428,-0.0045669591054320335,1.0012180805206299,0.09997618198394775,0.038818322122097015,0.20630303025245667,0.0,-1.0,74.0,25.0,0.025,-0.23769910633563995,0.6679039001464844,0.025800375267863274,-0.002545467345044017,-0.0023073714692145586,0.000814444909337908,-0.3271777927875519,-0.6063740253448486,40.584102630615234,0.025760961696505547,0.0012750872410833836,3.065424380110926e-06,0.0001817478914745152,3.7266862392425537,10.0,0.0,0.0,0.0,0.0,0.0,0.291,1.256,0.212,32.766,2.841,2018.9637451171875,809.9229736328125,28.72418212890625,,False,
1783700196.724042,2026-07-10T09:16:36,418805,20260710_091631,,,,,,ground_idle,,,,,,,,,False,-0.011041048914194107,-0.005532654467970133,1.0003775358200073,-0.08387768268585205,0.18441900610923767,-0.21143308281898499,0.0,-1.0,80.0,25.0,0.025,-0.23769910633563995,0.6679039001464844,0.025800375267863274,-0.002545467345044017,-0.0023073714692145586,0.000814444909337908,-0.3271777927875519,-0.6063740253448486,40.584102630615234,0.025457989424467087,-0.0008705033105798066,3.1533356832369464e-06,0.0001926640106830746,3.7266862392425537,10.0,0.0,0.0,0.0,0.0,0.0,0.297,1.2550000000000001,0.21,32.766,32.766,2018.9637451171875,809.9229736328125,28.72418212890625,,False,
1783700196.7342556,2026-07-10T09:16:36,418817,20260710_091631,,,,,,ground_idle,,,,,,,,,False,-0.012861513532698154,-0.007057924754917622,0.9987412691116333,-0.14376042783260345,-0.21481458842754364,0.07280346751213074,1.0,0.0,86.0,25.0,0.025,-0.23768308758735657,0.6679168343544006,0.02545786462724209,-0.002547436859458685,-0.0023144029546529055,-0.0008444718550890684,-0.32637184858322144,-0.6061911582946777,40.504417419433594,0.025457989424467087,-0.0008705033105798066,3.1533356832369464e-06,0.0001926640106830746,3.7266862392425537,10.0,0.0,0.0,0.0,0.0,0.0,0.297,1.2550000000000001,0.21,32.766,32.766,2018.9637451171875,809.9229736328125,28.72418212890625,,False,
1783700196.7444148,2026-07-10T09:16:36,418825,20260710_091631,,,,,,ground_idle,,,,,,,,,False,-0.013229307718575,-0.005081402137875557,1.0014753341674805,0.17252986133098602,-0.43244558572769165,-0.157491534948349,1.0,0.0,86.0,25.0,0.025,-0.23768308758735657,0.6679168343544006,0.02545786462724209,-0.002547436859458685,-0.0023144029546529055,-0.0008444718550890684,-0.32637184858322144,-0.6061911582946777,40.504417419433594,0.025457989424467087,-0.0008705033105798066,3.1533356832369464e-06,0.0001926640106830746,3.7266862392425537,10.0,0.0,0.0,0.0,0.0,0.0,0.297,1.2550000000000001,0.21,32.766,32.766,2018.9637451171875,809.9229736328125,28.72418212890625,,False,
1783700196.7545779,2026-07-10T09:16:36,418837,20260710_091631,,,,,,ground_idle,,,,,,,,,False,-0.013532659970223904,-0.004736171569675207,0.999291718006134,-0.16121360659599304,0.2519323527812958,-0.24967169761657715,0.0,-1.0,78.0,24.0,0.024,-0.2375476360321045,0.6677030920982361,0.0254410021007061,-0.0017963865539059043,-0.003400095272809267,-0.0008959468104876578,-0.318477988243103,-0.6033360958099365,40.42437744140625,0.025457989424467087,-0.0008705033105798066,3.1533356832369464e-06,0.0001926640106830746,3.7266862392425537,10.0,0.0,0.0,0.0,0.0,0.0,0.297,1.2550000000000001,0.21,32.766,32.766,2018.9637451171875,809.9229736328125,28.72418212890625,,False,
1783700196.764742,2026-07-10T09:16:36,418847,20260710_091631,,,,,,ground_idle,,,,,,,,,False,-0.011596858501434326,-0.0066718608140945435,0.9988832473754883,0.3189100921154022,-0.025082627311348915,-0.1368226706981659,0.0,2.0,76.0,24.0,0.024,-0.2375476360321045,0.6677030920982361,0.0254410021007061,-0.0017963865539059043,-0.003400095272809267,-0.0008959468104876578,-0.318477988243103,-0.6033360958099365,40.42437744140625,0.025457989424467087,-0.0008705033105798066,3.1533356832369464e-06,0.0001926640106830746,3.7266862392425537,10.0,0.0,0.0,0.0,0.0,0.0,0.297,1.2550000000000001,0.21,32.766,32.766,2018.9637451171875,809.9229736328125,28.72418212890625,,False,
1783700196.7751498,2026-07-10T09:16:36,418855,20260710_091631,,,,,,ground_idle,,,,,,,,,False,-0.013552574440836906,-0.007541154511272907,0.9973814487457275,-0.1389831006526947,-0.06630940735340118,0.0869452953338623,0.0,2.0,76.0,24.0,0.024,-0.23772595822811127,0.6675485968589783,0.0248037688434124,-0.0030727183911949396,-0.004113608039915562,-0.0040322584100067616,-0.32014206051826477,-0.5914958715438843,40.3434944152832,0.024762798100709915,-0.0042216903530061245,3.203942924301373e-06,0.00020248179498594254,3.7266862392425537,10.0,0.0,0.0,0.0,0.0,0.0,0.297,1.2550000000000001,0.21,32.766,32.766,2018.77783203125,809.9395751953125,28.735605239868164,,False,
1783700196.785305,2026-07-10T09:16:36,418867,20260710_091631,,,,,,ground_idle,,,,,,,,,False,-0.012484243139624596,-0.007113232742995024,0.9991217255592346,0.1085643619298935,-0.32208365201950073,-0.03187468275427818,0.0,0.0,84.0,24.0,0.024,-0.23772595822811127,0.6675485968589783,0.0248037688434124,-0.0030727183911949396,-0.004113608039915562,-0.0040322584100067616,-0.32014206051826477,-0.5914958715438843,40.3434944152832,0.024762798100709915,-0.0042216903530061245,3.203942924301373e-06,0.00020248179498594254,3.7266862392425537,10.0,0.0,0.0,0.0,0.0,0.0,0.297,1.2550000000000001,0.21,32.766,32.766,2018.77783203125,809.9395751953125,28.735605239868164,,False,
1783700196.795465,2026-07-10T09:16:36,418877,20260710_091631,,,,,,ground_idle,,,,,,,,,False,-0.011529817245900631,-0.0053643411956727505,0.9990057945251465,0.11330057680606842,0.23429779708385468,-0.009712567552924156,0.0,-1.0,86.0,24.0,0.024,-0.23791640996932983,0.6677052974700928,0.02472056820988655,-0.0038672371301800013,-0.003374705323949456,-0.004395109601318836,-0.32979002594947815,-0.59177166223526,40.26548767089844,0.024762798100709915,-0.0042216903530061245,3.203942924301373e-06,0.00020248179498594254,3.7266862392425537,10.0,0.0,0.0,0.0,0.0,0.0,0.297,1.2550000000000001,0.21,32.766,32.766,2018.77783203125,809.9395751953125,28.735605239868164,,False,
1783700196.80562,2026-07-10T09:16:36,418887,20260710_091631,,,,,,ground_idle,,,,,,,,,False,-0.013021440245211124,-0.006426422856748104,0.9993506669998169,0.061153966933488846,0.13079895079135895,-0.18271222710609436,0.0,1.0,75.0,24.0,0.024,-0.23791640996932983,0.6677052974700928,0.02472056820988655,-0.0038672371301800013,-0.003374705323949456,-0.004395109601318836,-0.32979002594947815,-0.59177166223526,40.26548767089844,0.024762798100709915,-0.0042216903530061245,3.203942924301373e-06,0.00020248179498594254,3.7266862392425537,10.0,0.0,0.0,0.0,0.0,0.0,0.297,1.2550000000000001,0.21,32.766,32.766,2018.77783203125,809.9395751953125,28.735605239868164,,False,
1783700196.8157778,2026-07-10T09:16:36,418897,20260710_091631,,,,,,ground_idle,,,,,,,,,False,-0.012715039774775505,-0.0066975802183151245,0.9994705319404602,-0.019283214583992958,0.14317527413368225,0.09212470799684525,0.0,-1.0,74.0,22.0,0.022,-0.23789487779140472,0.6677159667015076,0.02463206835091114,-0.0036024206783622503,-0.003227176144719124,-0.004608143586665392,-0.327607661485672,-0.5951609015464783,40.18708801269531,0.024762798100709915,-0.0042216903530061245,3.203942924301373e-06,0.00020248179498594254,3.7266862392425537,10.0,0.0,0.0,0.0,0.0,0.0,0.297,1.2550000000000001,0.21,32.766,32.766,2018.77783203125,809.9395751953125,28.735605239868164,,False,
1783700196.8260376,2026-07-10T09:16:36,418907,20260710_091631,,,,,,ground_idle,,,,,,,,,False,-0.012883639894425869,-0.006152545101940632,1.001108169555664,0.14005973935127258,-0.41372111439704895,-0.30023327469825745,0.0,0.0,91.0,22.0,0.022,-0.23789487779140472,0.6677159667015076,0.02463206835091114,-0.0036024206783622503,-0.003227176144719124,-0.004608143586665392,-0.327607661485672,-0.5951609015464783,40.18708801269531,0.023324117064476013,-0.010743802413344383,3.25373480336566e-06,0.00020673227845691144,3.7266862392425537,10.0,0.0,0.0,0.0,0.0,0.0,0.295,1.254,0.216,32.766,2.848,2018.77783203125,809.9395751953125,28.735605239868164,,False,
1783700196.836192,2026-07-10T09:16:36,418917,20260710_091631,,,,,,ground_idle,,,,,,,,,False,-0.01149523351341486,-0.007467213086783886,1.0013020038604736,-0.05047743767499924,-0.08489968627691269,-0.006817447952926159,0.0,0.0,86.0,22.0,0.022,-0.23772822320461273,0.6678401827812195,0.023324117064476013,-0.0027016079984605312,-0.0026454839389771223,-0.010702984407544136,-0.326659619808197,-0.6072096824645996,40.108726501464844,0.023324117064476013,-0.010743802413344383,3.25373480336566e-06,0.00020673227845691144,3.7266862392425537,10.0,0.0,0.0,0.0,0.0,0.0,0.295,1.254,0.216,32.766,2.848,2018.77783203125,809.9395751953125,28.735605239868164,,False,
1783700196.8463542,2026-07-10T09:16:36,418927,20260710_091631,,,,,,ground_idle,,,,,,,,,False,-0.011048415675759315,-0.006868008058518171,1.0007262229919434,0.08188970386981964,-0.20015640556812286,0.015282475389540195,0.0,0.0,82.0,22.0,0.022,-0.23772822320461273,0.6678401827812195,0.023324117064476013,-0.0027016079984605312,-0.0026454839389771223,-0.010702984407544136,-0.326659619808197,-0.6072096824645996,40.108726501464844,0.023324117064476013,-0.010743802413344383,3.25373480336566e-06,0.00020673227845691144,3.7266862392425537,10.0,0.0,0.0,0.0,0.0,0.0,0.295,1.254,0.216,32.766,2.848,2018.77783203125,809.9395751953125,28.735605239868164,,False,
1783700196.856537,2026-07-10T09:16:36,418937,20260710_091631,,,,,,ground_idle,,,,,,,,,False,-0.010597179643809795,-0.007531558163464069,0.9982850551605225,0.07902078330516815,-0.06542357802391052,0.10741697996854782,1.0,-1.0,85.0,27.0,0.027,-0.23778386414051056,0.6677839159965515,0.023113040253520012,-0.0027976352721452713,-0.002990548964589834,-0.010390435345470905,-0.3255724012851715,-0.6033912897109985,40.0294075012207,0.023324117064476013,-0.010743802413344383,3.25373480336566e-06,0.00020673227845691144,3.7266862392425537,10.0,0.0,0.0,0.0,0.0,0.0,0.295,1.254,0.216,32.766,2.848,2018.77783203125,809.9395751953125,28.735605239868164,,False,
1783700196.866699,2026-07-10T09:16:36,418947,20260710_091631,,,,,,ground_idle,,,,,,,,,False,-0.008788054808974266,-0.006482482887804508,1.0006552934646606,0.008768551982939243,-0.23855873942375183,0.05776111036539078,0.0,0.0,75.0,27.0,0.027,-0.23778386414051056,0.6677839159965515,0.023113040253520012,-0.0027976352721452713,-0.002990548964589834,-0.010390435345470905,-0.3255724012851715,-0.6033912897109985,40.0294075012207,0.023324117064476013,-0.010743802413344383,3.25373480336566e-06,0.00020673227845691144,3.7266862392425537,10.0,0.0,0.0,0.0,0.0,0.0,0.295,1.254,0.216,32.766,2.848,2018.77783203125,809.9395751953125,28.735605239868164,,False,
1783700196.8768902,2026-07-10T09:16:36,418957,20260710_091631,,,,,,ground_idle,,,,,,,,,False,-0.011212019249796867,-0.005658851005136967,0.9980687499046326,-0.19495585560798645,0.37818077206611633,0.012214692309498787,0.0,1.0,90.0,27.0,0.027,-0.23739276826381683,0.6677402853965759,0.024677816778421402,-0.0003207086119800806,-0.0030973749235272408,-0.0011603375896811485,-0.31497734785079956,-0.6129331588745117,39.95036697387695,0.024666259065270424,-0.0011850876035168767,3.2963794183160644e-06,0.00021645000379066914,3.7266862392425537,10.0,0.0,0.0,0.0,0.0,0.0,0.295,1.254,0.216,32.766,2.848,2018.83251953125,809.9345703125,28.744722366333008,,False,
1783700196.887083,2026-07-10T09:16:36,418967,20260710_091631,,,,,,ground_idle,,,,,,,,,False,-0.012419665232300758,-0.006533653475344181,0.9990056157112122,0.0944468230009079,0.034595221281051636,-0.27184808254241943,0.0,1.0,87.0,27.0,0.027,-0.23739276826381683,0.6677402853965759,0.024677816778421402,-0.0003207086119800806,-0.0030973749235272408,-0.0011603375896811485,-0.31497734785079956,-0.6129331588745117,39.95036697387695,0.024666259065270424,-0.0011850876035168767,3.2963794183160644e-06,0.00021645000379066914,3.7266862392425537,10.0,0.0,0.0,0.0,0.0,0.0,0.295,1.254,0.216,32.766,2.848,2018.83251953125,809.9345703125,28.744722366333008,,False,
1783700196.8972392,2026-07-10T09:16:36,418977,20260710_091631,,,,,,ground_idle,,,,,,,,,False,-0.01252338569611311,-0.007336840033531189,0.9995048642158508,-0.047145914286375046,-0.16894525289535522,0.07813820242881775,0.0,-1.0,86.0,27.0,0.027,-0.23780503869056702,0.6674069762229919,0.024653475731611252,-0.00234311749227345,-0.0045401002280414104,-0.0013090303400531411,-0.317275732755661,-0.5948183536529541,39.872772216796875,0.024666259065270424,-0.0011850876035168767,3.2963794183160644e-06,0.00021645000379066914,3.7266862392425537,10.0,0.0,0.0,0.0,0.0,0.0,0.295,1.254,0.216,32.766,2.848,2018.83251953125,809.9345703125,28.744722366333008,,False,
1783700196.9073958,2026-07-10T09:16:36,418987,20260710_091631,,,,,,ground_idle,,,,,,,,,False,-0.012195209041237831,-0.0068589081056416035,0.9993346929550171,-0.05811845511198044,-0.4080441892147064,-0.14881038665771484,0.0,0.0,78.0,27.0,0.027,-0.23780503869056702,0.6674069762229919,0.024653475731611252,-0.00234311749227345,-0.0045401002280414104,-0.0013090303400531411,-0.317275732755661,-0.5948183536529541,39.872772216796875,0.024666259065270424,-0.0011850876035168767,3.2963794183160644e-06,0.00021645000379066914,3.7266862392425537,10.0,0.0,0.0,0.0,0.0,0.0,0.295,1.254,0.216,32.766,2.848,2018.83251953125,809.9345703125,28.744722366333008,,False,
1783700196.9175735,2026-07-10T09:16:36,418997,20260710_091631,,,,,,ground_idle,,,,,,,,,False,-0.014214815571904182,-0.006404846906661987,0.9985882043838501,-0.07565325498580933,0.018195509910583496,0.06258976459503174,0.0,-1.0,78.0,25.0,0.025,-0.23760415613651276,0.6675563454627991,0.024628357961773872,-0.001219511847011745,-0.0037720785476267338,-0.0013897783355787396,-0.3176039457321167,-0.6055062413215637,39.794647216796875,0.024666259065270424,-0.0011850876035168767,3.2963794183160644e-06,0.00021645000379066914,3.7266862392425537,10.0,0.0,0.0,0.0,0.0,0.0,0.295,1.254,0.216,32.766,2.848,2018.83251953125,809.9345703125,28.744722366333008,,False,
1783700196.9277728,2026-07-10T09:16:36,419010,20260710_091631,,,,,,ground_idle,,,,,,,,,False,-0.0128634599968791,-0.005208995658904314,0.9993589520454407,0.035521961748600006,0.2333930879831314,0.007951132953166962,0.0,0.0,79.0,25.0,0.025,-0.23739030957221985,0.6677167415618896,0.024775469675660133,-0.0002815746993292123,-0.0030331385787576437,-0.0006560340989381075,-0.3176039457321167,-0.6055062413215637,39.794647216796875,0.024775469675660133,-0.0006911280215717852,3.3340161280648317e-06,0.00021535210544243455,3.7266862392425537,10.0,0.0,0.0,0.0,0.0,0.0,0.28800000000000003,1.2570000000000001,0.21,32.766,2.845,2018.83251953125,809.9345703125,28.744722366333008,,False,
1783700196.9379978,2026-07-10T09:16:36,419017,20260710_091631,,,,,,ground_idle,,,,,,,,,False,-0.012421474792063236,-0.006296406500041485,0.9996538758277893,0.06007526069879532,-0.08641444146633148,0.0704583153128624,0.0,0.0,89.0,25.0,0.025,-0.23739030957221985,0.6677167415618896,0.024775469675660133,-0.0002815746993292123,-0.0030331385787576437,-0.0006560340989381075,-0.318668931722641,-0.6159928441047668,39.71528244018555,0.024775469675660133,-0.0006911280215717852,3.3340161280648317e-06,0.00021535210544243455,3.7266862392425537,10.0,0.0,0.0,0.0,0.0,0.0,0.28800000000000003,1.2570000000000001,0.21,32.766,2.845,2018.83251953125,809.9345703125,28.744722366333008,,False,
1783700196.948168,2026-07-10T09:16:36,419030,20260710_091631,,,,,,ground_idle,,,,,,,,,False,-0.013289552181959152,-0.0062045203521847725,0.9999126195907593,-0.04390746355056763,-0.02007288858294487,0.13306042551994324,0.0,2.0,85.0,25.0,0.025,-0.23785467445850372,0.6673197150230408,0.024760987609624863,-0.0029494825284928083,-0.005019384901970625,-0.000733967637643218,-0.318668931722641,-0.6159928441047668,39.71528244018555,0.024775469675660133,-0.0006911280215717852,3.3340161280648317e-06,0.00021535210544243455,3.7266862392425537,10.0,0.0,0.0,0.0,0.0,0.0,0.28800000000000003,1.2570000000000001,0.21,32.766,2.845,2018.83251953125,809.9345703125,28.744722366333008,,False,
1783700196.9583385,2026-07-10T09:16:36,419037,20260710_091631,,,,,,ground_idle,,,,,,,,,False,-0.013000726699829102,-0.005825303960591555,0.9999399781227112,0.00044694566167891026,0.17358870804309845,-0.11937528848648071,0.0,0.0,72.0,23.0,0.023,-0.23785467445850372,0.6673197150230408,0.024760987609624863,-0.0029494825284928083,-0.005019384901970625,-0.000733967637643218,-0.31960299611091614,-0.5941324830055237,39.6376953125,0.024775469675660133,-0.0006911280215717852,3.3340161280648317e-06,0.00021535210544243455,3.7266862392425537,10.0,0.0,0.0,0.0,0.0,0.0,0.28800000000000003,1.2570000000000001,0.21,32.766,2.845,2018.83251953125,809.9345703125,28.744722366333008,,False,
1783700196.9685092,2026-07-10T09:16:36,419051,20260710_091631,,,,,,ground_idle,,,,,,,,,False,-0.011018852703273296,-0.0050838422030210495,0.9991244673728943,0.14372166991233826,-0.04634269326925278,-0.0002252081030746922,0.0,0.0,79.0,23.0,0.023,-0.23791956901550293,0.6672089099884033,0.02395392768085003,-0.0033151358366012573,-0.005408568773418665,-0.00497069675475359,-0.31928882002830505,-0.5949583053588867,39.561214447021484,0.024775469675660133,-0.0006911280215717852,3.3340161280648317e-06,0.00021535210544243455,3.7266862392425537,10.0,0.0,0.0,0.0,0.0,0.0,0.28800000000000003,1.2570000000000001,0.21,32.766,2.845,2018.83251953125,809.9345703125,28.744722366333008,,False,
1783700196.9786773,2026-07-10T09:16:36,419057,20260710_091631,,,,,,ground_idle,,,,,,,,,False,-0.009954041801393032,-0.0031275367364287376,0.9980990290641785,-0.12910889089107513,0.1542430818080902,0.11528485268354416,0.0,-1.0,86.0,23.0,0.023,-0.23791956901550293,0.6672089099884033,0.02395392768085003,-0.0033151358366012573,-0.005408568773418665,-0.00497069675475359,-0.31928882002830505,-0.5949583053588867,39.561214447021484,0.02390368841588497,-0.0051505910232663155,3.358675257914001e-06,0.00022110217832960188,3.7266862392425537,10.0,0.0,0.0,0.0,0.0,0.0,0.28800000000000003,1.2570000000000001,0.21,32.766,2.845,2018.8980712890625,809.9285278320312,28.754297256469727,,False,
1783700196.9888647,2026-07-10T09:16:36,419070,20260710_091631,,,,,,ground_idle,,,,,,,,,False,-0.010899844579398632,-0.0035582410637289286,0.9999935626983643,-0.0024275321047753096,-0.32261037826538086,0.15075360238552094,-1.0,1.0,83.0,23.0,0.023,-0.23808811604976654,0.667503833770752,0.023854244500398636,-0.004131209570914507,-0.0031632930040359497,-0.005185478366911411,-0.31928882002830505,-0.5949583053588867,39.561214447021484,0.02390368841588497,-0.0051505910232663155,3.358675257914001e-06,0.00022110217832960188,3.7266862392425537,10.0,0.0,0.0,0.0,0.0,0.0,0.28800000000000003,1.2570000000000001,0.21,32.766,2.845,2018.8980712890625,809.9285278320312,28.754297256469727,,False,
1783700196.9990928,2026-07-10T09:16:36,419077,20260710_091631,,,,,,ground_idle,,,,,,,,,False,-0.011044610291719437,-0.006863319780677557,0.9993939995765686,-0.026413297280669212,-0.08901720494031906,-0.2250364124774933,1.0,-2.0,86.0,23.0,0.023,-0.23808811604976654,0.667503833770752,0.023854244500398636,-0.004131209570914507,-0.0031632930040359497,-0.005185478366911411,-0.33318811655044556,-0.6008182764053345,39.48555374145508,0.02390368841588497,-0.0051505910232663155,3.358675257914001e-06,0.00022110217832960188,3.7266862392425537,10.0,0.0,0.0,0.0,0.0,0.0,0.28800000000000003,1.2570000000000001,0.21,32.766,2.845,2018.8980712890625,809.9285278320312,28.754297256469727,,False,
1783700197.0092533,2026-07-10T09:16:37,419091,20260710_091631,,,,,,ground_idle,,,,,,,,,False,-0.011071676388382912,-0.008647828362882137,0.9989138245582581,0.04142563045024872,0.275128036737442,0.05381296947598457,0.0,1.0,74.0,23.0,0.023,-0.23762305080890656,0.6674930453300476,0.023755153641104698,-0.001532837050035596,-0.002965510357171297,-0.005186367779970169,-0.3215853273868561,-0.6151108145713806,39.40662384033203,0.02390368841588497,-0.0051505910232663155,3.358675257914001e-06,0.00022110217832960188,3.7266862392425537,10.0,0.0,0.0,0.0,0.0,0.0,0.28800000000000003,1.2570000000000001,0.21,32.766,2.845,2018.8980712890625,809.9285278320312,28.754297256469727,,False,
1783700197.019413,2026-07-10T09:16:37,419097,20260710_091631,,,,,,ground_idle,,,,,,,,,False,-0.012222512625157833,-0.007759043015539646,0.9987422823905945,0.04397760331630707,-0.07586175948381424,-0.11466456949710846,0.0,0.0,74.0,23.0,0.023,-0.23762305080890656,0.6674930453300476,0.023755153641104698,-0.001532837050035596,-0.002965510357171297,-0.005186367779970169,-0.3215853273868561,-0.6151108145713806,39.40662384033203,0.02390368841588497,-0.0051505910232663155,3.358675257914001e-06,0.00022110217832960188,3.7266862392425537,10.0,0.0,0.0,0.0,0.0,0.0,0.28800000000000003,1.2570000000000001,0.21,32.766,2.845,2018.8980712890625,809.9285278320312,28.754297256469727,,False,
1783700197.0295749,2026-07-10T09:16:37,419111,20260710_091631,,,,,,ground_idle,,,,,,,,,False,-0.014232316054403782,-0.003904008539393544,0.9999989867210388,-0.055089496076107025,-0.21665869653224945,-0.006741582881659269,0.0,1.0,82.0,23.0,0.023,-0.23787498474121094,0.6672782301902771,0.023287897929549217,-0.002595403464511037,-0.004238948225975037,-0.00720225740224123,-0.32189834117889404,-0.6022668480873108,39.329345703125,0.02328828163444996,-0.007245686836540699,3.3829603580670664e-06,0.00022903930221218616,3.7266862392425537,10.0,0.0,0.0,0.0,0.0,0.0,0.28700000000000003,1.256,0.209,32.766,2.845,2018.8980712890625,809.9285278320312,28.754297256469727,,False,
1783700197.0397403,2026-07-10T09:16:37,419117,20260710_091631,,,,,,ground_idle,,,,,,,,,False,-0.012758553959429264,-0.0044617801904678345,1.0012675523757935,-0.0939376950263977,-0.15077607333660126,-0.03475843369960785,0.0,-1.0,94.0,23.0,0.023,-0.23787498474121094,0.6672782301902771,0.023287897929549217,-0.002595403464511037,-0.004238948225975037,-0.00720225740224123,-0.32189834117889404,-0.6022668480873108,39.329345703125,0.02328828163444996,-0.007245686836540699,3.3829603580670664e-06,0.00022903930221218616,3.7266862392425537,10.0,0.0,0.0,0.0,0.0,0.0,0.28700000000000003,1.256,0.209,32.766,2.845,2018.8980712890625,809.9285278320312,28.754297256469727,,False,
1783700197.0502477,2026-07-10T09:16:37,419131,20260710_091631,,,,,,ground_idle,,,,,,,,,False,-0.013828721828758717,-0.006731140427291393,0.9973124265670776,0.12382291257381439,0.008963624015450478,-0.22190697491168976,-1.0,0.0,82.0,23.0,0.023,-0.23780225217342377,0.6677193641662598,0.023146694526076317,-0.0025755155365914106,-0.0017053143819794059,-0.0070936111733317375,-0.3353777825832367,-0.6154792308807373,39.25240707397461,0.02328828163444996,-0.007245686836540699,3.3829603580670664e-06,0.00022903930221218616,3.7266862392425537,10.0,0.0,0.0,0.0,0.0,0.0,0.28700000000000003,1.256,0.209,32.766,2.845,2018.8980712890625,809.9285278320312,28.754297256469727,,False,
1783700197.0604472,2026-07-10T09:16:37,419137,20260710_091631,,,,,,ground_idle,,,,,,,,,False,-0.011010881513357162,-0.006272922735661268,0.9973748326301575,0.2087300568819046,-0.017595071345567703,0.04743369296193123,0.0,-1.0,80.0,25.0,0.025,-0.23780225217342377,0.6677193641662598,0.023146694526076317,-0.0025755155365914106,-0.0017053143819794059,-0.0070936111733317375,-0.3353777825832367,-0.6154792308807373,39.25240707397461,0.02328828163444996,-0.007245686836540699,3.3829603580670664e-06,0.00022903930221218616,3.7266862392425537,10.0,0.0,0.0,0.0,0.0,0.0,0.28700000000000003,1.256,0.209,32.766,2.845,2018.8980712890625,809.9285278320312,28.754297256469727,,False,
1783700197.0706341,2026-07-10T09:16:37,419150,20260710_091631,,,,,,arming,,,,,,,,,False,-0.0122525030747056,-0.00482502207159996,0.9989024996757507,0.037605736404657364,-0.141273632645607,0.03660806640982628,1.0,0.0,84.0,25.0,0.025,-0.23739080131053925,0.6676962375640869,0.02388184145092964,-0.0004236167296767235,-0.0019488898105919361,-0.0028024271596223116,-0.3353777825832367,-0.6154792308807373,39.25240707397461,0.02328828163444996,-0.007245686836540699,3.3829603580670664e-06,0.00022903930221218616,3.7266862392425537,10.0,0.0,0.0,0.0,0.0,0.0,0.28700000000000003,1.256,0.209,32.766,2.845,2018.8980712890625,809.9285278320312,28.754297256469727,,False,
1783700197.0808237,2026-07-10T09:16:37,419157,20260710_091631,,,,,,arming,,,,,,,,,False,-0.012435619719326496,-0.005899373441934586,0.9982845187187195,0.13721653819084167,-0.2075604498386383,0.05855030193924904,0.0,0.0,86.0,25.0,0.025,-0.23739080131053925,0.6676962375640869,0.02388184145092964,-0.0004236167296767235,-0.0019488898105919361,-0.0028024271596223116,-0.32259076833724976,-0.6283769607543945,39.17491149902344,0.02385321818292141,-0.0029467714484781027,3.4138699902541703e-06,0.0002402545214863494,3.7266862392425537,10.0,0.0,7000.0,7000.0,7000.0,7000.0,0.28700000000000003,1.256,0.209,32.766,2.845,2018.8817138671875,809.9300537109375,28.76280975341797,,False,
1783700197.0911741,2026-07-10T09:16:37,419171,20260710_091631,,,,,,arming,,,,,,,,,False,-0.011632213369011879,-0.005092204548418522,0.9987019300460815,-0.08829724043607712,-0.324868768453598,-0.0019340041326358914,-1.0,1.0,80.0,25.0,0.025,-0.23779769241809845,0.667722761631012,0.023823484778404236,-0.0027642231434583664,-0.0017246720381081104,-0.003079158952459693,-0.33334410190582275,-0.615127682685852,39.099788665771484,0.02385321818292141,-0.0029467714484781027,3.4138699902541703e-06,0.0002402545214863494,3.7266862392425537,10.0,0.0,7000.0,7000.0,7000.0,7000.0,0.28700000000000003,1.256,0.209,32.766,2.845,2018.8817138671875,809.9300537109375,28.76280975341797,,False,
1783700197.1013632,2026-07-10T09:16:37,419177,20260710_091631,,,,,,arming,,,,,,,,,False,-0.01321410946547985,-0.006772404070943594,1.0011533498764038,-0.290937602519989,-0.04244695231318474,-0.07518557459115982,0.0,0.0,90.0,25.0,0.025,-0.23779769241809845,0.667722761631012,0.023823484778404236,-0.0027642231434583664,-0.0017246720381081104,-0.003079158952459693,-0.33334410190582275,-0.615127682685852,39.099788665771484,0.02385321818292141,-0.0029467714484781027,3.4138699902541703e-06,0.0002402545214863494,3.7266862392425537,10.0,0.0,7000.0,7000.0,7000.0,7000.0,0.28700000000000003,1.256,0.209,32.766,2.845,2018.8817138671875,809.9300537109375,28.76280975341797,,False,
1783700197.1115286,2026-07-10T09:16:37,419191,20260710_091631,,,,,,arming,,,,,,,,,False,-0.013440554961562157,-0.005895926617085934,0.998405933380127,-0.23720762133598328,-0.37156426906585693,0.1625795215368271,1.0,-1.0,75.0,25.0,0.025,-0.23741357028484344,0.6676667332649231,0.023762855678796768,-0.0006937386933714151,-0.0020895330235362053,-0.0030710725113749504,-0.3262138366699219,-0.6234346628189087,39.02393341064453,0.02385321818292141,-0.0029467714484781027,3.4138699902541703e-06,0.0002402545214863494,3.7266862392425537,10.0,0.0,7000.0,7000.0,7000.0,7000.0,0.28700000000000003,1.256,0.209,32.766,2.845,2018.8817138671875,809.9300537109375,28.76280975341797,,False,
1783700197.1216967,2026-07-10T09:16:37,419203,20260710_091631,,,,,,arming,,,,,,,,,False,-0.013848237693309784,-0.0065052383579313755,0.9977871775627136,0.09124569594860077,0.21227608621120453,0.06712017953395844,0.0,0.0,72.0,24.0,0.024,-0.23741357028484344,0.6676667332649231,0.023762855678796768,-0.0006937386933714151,-0.0020895330235362053,-0.0030710725113749504,-0.3262138366699219,-0.6234346628189087,39.02393341064453,0.023813584819436073,-0.0028297274839133024,3.4489908102841582e-06,0.00023829155543353409,3.7266862392425537,10.0,0.0,7000.0,7000.0,7000.0,7000.0,0.28700000000000003,1.256,0.209,32.766,2.845,2018.8817138671875,809.9300537109375,28.76280975341797,,False,
1783700197.1319342,2026-07-10T09:16:37,419211,20260710_091631,,,,,,arming,,,,,,,,,False,-0.013661442324519157,-0.008534914813935757,0.9999207854270935,-0.061648789793252945,-0.10955282300710678,0.06685779243707657,0.0,1.0,81.0,24.0,0.024,-0.237653911113739,0.6674662828445435,0.023813406005501747,-0.0021581603214144707,-0.003377721179276705,-0.0027963402681052685,-0.32689616084098816,-0.6112688183784485,38.948394775390625,0.023813584819436073,-0.0028297274839133024,3.4489908102841582e-06,0.00023829155543353409,3.7266862392425537,10.0,0.0,7000.0,7000.0,7000.0,7000.0,0.298,1.2510000000000001,0.213,32.766,2.853,2018.8817138671875,809.9300537109375,28.76280975341797,,False,
1783700197.1423135,2026-07-10T09:16:37,419217,20260710_091631,,,,,,arming,,,,,,,,,False,-0.012534313835203648,-0.006682230159640312,0.9983778595924377,0.07110210508108139,0.16337405145168304,0.24509739875793457,-1.0,1.0,90.0,24.0,0.024,-0.237653911113739,0.6674662828445435,0.023813406005501747,-0.0021581603214144707,-0.003377721179276705,-0.0027963402681052685,-0.32689616084098816,-0.6112688183784485,38.948394775390625,0.023813584819436073,-0.0028297274839133024,3.4489908102841582e-06,0.00023829155543353409,3.7266862392425537,10.0,0.0,7000.0,7000.0,7000.0,7000.0,0.298,1.2510000000000001,0.213,32.766,2.853,2018.8817138671875,809.9300537109375,28.76280975341797,,False,
1783700197.1525726,2026-07-10T09:16:37,419231,20260710_091631,,,,,,arming,,,,,,,,,False,-0.01305089145898819,-0.005228019319474697,1.001189947128296,0.1638220101594925,-0.02936442755162716,-0.0368376187980175,2.0,-1.0,82.0,24.0,0.024,-0.23745962977409363,0.6672759652137756,0.023759564384818077,-0.0009903449099510908,-0.004535210318863392,-0.0028763997834175825,-0.3161979913711548,-0.6158448457717896,38.87282943725586,0.023813584819436073,-0.0028297274839133024,3.4489908102841582e-06,0.00023829155543353409,3.7266862392425537,10.0,0.0,7000.0,7000.0,7000.0,7000.0,0.298,1.2510000000000001,0.213,32.766,2.853,2018.8817138671875,809.9300537109375,28.76280975341797,,False,
1783700197.1627884,2026-07-10T09:16:37,419237,20260710_091631,,,,,,arming,,,,,,,,,False,-0.009799034334719181,-0.0036105827894061804,1.0018948316574097,0.3361709713935852,0.15363529324531555,-0.19994235038757324,-2.0,0.0,89.0,23.0,0.023,-0.23745962977409363,0.6672759652137756,0.023759564384818077,-0.0009903449099510908,-0.004535210318863392,-0.0028763997834175825,-0.3161979913711548,-0.6158448457717896,38.87282943725586,0.023813584819436073,-0.0028297274839133024,3.4489908102841582e-06,0.00023829155543353409,3.7266862392425537,10.0,0.0,7000.0,7000.0,7000.0,7000.0,0.298,1.2510000000000001,0.213,32.766,2.853,2018.8817138671875,809.9300537109375,28.76280975341797,,False,
1783700197.1729803,2026-07-10T09:16:37,419255,20260710_091631,,,,,,arming,,,,,,,,,False,-0.01187293790280819,-0.0062075043097138405,0.9988915324211121,0.17092981934547424,0.1783626675605774,-0.07312116026878357,0.0,0.0,86.0,23.0,0.023,-0.23783060908317566,0.6677023768424988,0.023366741836071014,-0.0029222234152257442,-0.0018335480708628893,-0.004440429154783487,-0.33465376496315,-0.6173086166381836,38.79763412475586,0.023321883752942085,-0.004566540475934744,3.4751458315440686e-06,0.00024249112175311893,3.7266862392425537,10.0,0.0,7000.0,7000.0,7000.0,7000.0,0.298,1.2510000000000001,0.213,32.766,2.853,2018.947265625,809.9241943359375,28.772146224975586,,False,
1783700197.1831567,2026-07-10T09:16:37,419265,20260710_091631,,,,,,arming,,,,,,,,,False,-0.009816095232963562,-0.005885510705411434,0.9990267157554626,0.16578510403633118,-0.14617876708507538,0.0880773663520813,0.0,0.0,88.0,23.0,0.023,-0.23783060908317566,0.6677023768424988,0.023366741836071014,-0.0029222234152257442,-0.0018335480708628893,-0.004440429154783487,-0.33465376496315,-0.6173086166381836,38.79763412475586,0.023321883752942085,-0.004566540475934744,3.4751458315440686e-06,0.00024249112175311893,3.7266862392425537,10.0,0.0,7000.0,7000.0,7000.0,7000.0,0.298,1.2510000000000001,0.213,32.766,2.853,2018.947265625,809.9241943359375,28.772146224975586,,False,
1783700197.1933174,2026-07-10T09:16:37,419275,20260710_091631,,,,,,arming,,,,,,,,,False,-0.011930965818464756,-0.003595882561057806,0.9990339875221252,-0.27564582228660583,-0.36654767394065857,0.6688591241836548,0.0,1.0,90.0,23.0,0.023,-0.23808354139328003,0.6674984693527222,0.023275628685951233,-0.004012505058199167,-0.00290094455704093,-0.004606359172612429,-0.3326181471347809,-0.6082803010940552,38.72053909301758,0.023321883752942085,-0.004566540475934744,3.4751458315440686e-06,0.00024249112175311893,3.7266862392425537,10.0,0.0,7000.0,7000.0,7000.0,7000.0,0.298,1.2510000000000001,0.213,32.766,2.853,2018.947265625,809.9241943359375,28.772146224975586,,False,
1783700197.203476,2026-07-10T09:16:37,419277,20260710_091631,,,,,,arming,,,,,,,,,False,-0.011930965818464756,-0.003595882561057806,0.9990339875221252,-0.27564582228660583,-0.36654767394065857,0.6688591241836548,1.0,-1.0,88.0,23.0,0.023,-0.23808354139328003,0.6674984693527222,0.023275628685951233,-0.004012505058199167,-0.00290094455704093,-0.004606359172612429,-0.3326181471347809,-0.6082803010940552,38.72053909301758,0.023321883752942085,-0.004566540475934744,3.4751458315440686e-06,0.00024249112175311893,3.7266862392425537,10.0,0.0,7000.0,7000.0,7000.0,7000.0,0.298,1.2510000000000001,0.213,32.766,2.853,2018.947265625,809.9241943359375,28.772146224975586,,False,
1783700197.2136345,2026-07-10T09:16:37,419295,20260710_091631,,,,,,arming,,,,,,,,,False,-0.01143823191523552,-0.006173071451485157,0.999884307384491,-0.022317031398415565,0.13712535798549652,-0.27347713708877563,0.0,-1.0,74.0,23.0,0.023,-0.23742687702178955,0.6676468849182129,0.023173857480287552,-0.0004395698488224298,-0.0016605858691036701,-0.004923166707158089,-0.321280300617218,-0.6322075128555298,38.64470291137695,0.023321883752942085,-0.004566540475934744,3.4751458315440686e-06,0.00024249112175311893,3.7266862392425537,10.0,0.0,7000.0,7000.0,7000.0,7000.0,0.298,1.2510000000000001,0.213,32.766,2.853,2018.947265625,809.9241943359375,28.772146224975586,,False,
1783700197.2238185,2026-07-10T09:16:37,419305,20260710_091631,,,,,,arming,,,,,,,,,False,-0.012457399629056454,-0.005841650068759918,1.0011427402496338,-0.15930256247520447,0.04529091343283653,0.0811874270439148,0.0,2.0,76.0,25.0,0.025,-0.23742687702178955,0.6676468849182129,0.023173857480287552,-0.0004395698488224298,-0.0016605858691036701,-0.004923166707158089,-0.321280300617218,-0.6322075128555298,38.64470291137695,0.023988530039787292,-0.00021107305656187236,3.1430024591827532e-06,0.00023423141101375222,3.710850477218628,10.0,0.0,7000.0,7000.0,7000.0,7000.0,0.295,1.25,0.209,32.766,2.853,2018.947265625,809.9241943359375,28.772146224975586,,False,
1783700197.2339892,2026-07-10T09:16:37,419317,20260710_091631,,,,,,arming,,,,,,,,,False,-0.011332345195114613,-0.006848860997706652,1.0000921487808228,0.3111691176891327,-0.25879529118537903,-1.0274826288223267,-1.0,2.0,86.0,25.0,0.025,-0.23742273449897766,0.6676573157310486,0.02398899756371975,-0.0006526131182909012,-0.0014782234793528914,-0.00010877441673073918,-0.31928330659866333,-0.6320765018463135,38.56669998168945,0.023988530039787292,-0.00021107305656187236,3.1430024591827532e-06,0.00023423141101375222,3.710850477218628,10.0,0.0,7000.0,7000.0,7000.0,7000.0,0.295,1.25,0.209,32.766,2.853,2018.947265625,809.9241943359375,28.772146224975586,,False,
1783700197.2441444,2026-07-10T09:16:37,419327,20260710_091631,,,,,,arming,,,,,,,,,False,-0.012985702604055405,-0.004680262878537178,0.9991880059242249,-0.23537400364875793,0.13780170679092407,-0.2867244780063629,0.0,-1.0,80.0,25.0,0.025,-0.23742273449897766,0.6676573157310486,0.02398899756371975,-0.0006526131182909012,-0.0014782234793528914,-0.00010877441673073918,-0.31928330659866333,-0.6320765018463135,38.56669998168945,0.023988530039787292,-0.00021107305656187236,3.1430024591827532e-06,0.00023423141101375222,3.710850477218628,10.0,0.0,7000.0,7000.0,7000.0,7000.0,0.295,1.25,0.209,32.766,2.853,2018.947265625,809.9241943359375,28.772146224975586,,False,
1783700197.2543032,2026-07-10T09:16:37,419335,20260710_091631,,,,,,arming,,,,,,,,,False,-0.011741485446691513,-0.00866187084466219,1.0001622438430786,0.20228153467178345,0.33075442910194397,1.2281476259231567,0.0,-1.0,80.0,25.0,0.025,-0.23780249059200287,0.6677066683769226,0.023987002670764923,-0.0025624465197324753,-0.0012544029159471393,-0.00023862617672421038,-0.33013859391212463,-0.6239465475082397,38.498138427734375,0.023988530039787292,-0.00021107305656187236,3.1430024591827532e-06,0.00023423141101375222,3.710850477218628,10.0,0.0,7000.0,7000.0,7000.0,7000.0,0.295,1.25,0.209,32.766,2.853,2018.947265625,809.9241943359375,28.772146224975586,,False,
1783700197.2644758,2026-07-10T09:16:37,419347,20260710_091631,,,,,,arming,,,,,,,,,False,-0.010514763183891773,-0.0037982105277478695,0.9976699352264404,-0.1989326775074005,0.34311819076538086,1.3440579175949097,0.0,3.0,86.0,24.0,0.024,-0.23780249059200287,0.6677066683769226,0.023987002670764923,-0.0025624465197324753,-0.0012544029159471393,-0.00023862617672421038,-0.33013859391212463,-0.6239465475082397,38.498138427734375,0.023988530039787292,-0.00021107305656187236,3.1430024591827532e-06,0.00023423141101375222,3.710850477218628,10.0,0.0,7000.0,7000.0,7000.0,7000.0,0.295,1.25,0.209,32.766,2.853,2018.947265625,809.9241943359375,28.772146224975586,,False,
1783700197.2746458,2026-07-10T09:16:37,419355,20260710_091631,,,,,,arming,,,,,,,,,False,-0.00877154991030693,-0.006294941529631615,0.9996830821037292,0.300413578748703,-0.2135573923587799,0.3243471384048462,0.0,3.0,86.0,24.0,0.024,-0.23818562924861908,0.6673964858055115,0.023990385234355927,-0.004523772746324539,-0.0029366102535277605,-0.00026298390002921224,-0.32809510827064514,-0.6079498529434204,38.41767883300781,0.023990385234355927,-0.00031701274565421045,3.3205787985934876e-06,0.00024971223319880664,3.710850477218628,10.0,0.0,7000.0,7000.0,7000.0,7000.0,0.295,1.25,0.209,32.766,2.853,2019.0294189453125,809.9169921875,28.783479690551758,,False,
1783700197.2848074,2026-07-10T09:16:37,419367,20260710_091631,,,,,,arming,,,,,,,,,False,-0.011877228505909443,-0.009205000475049019,0.9987108707427979,0.31708452105522156,0.09983143210411072,0.12968085706233978,0.0,0.0,85.0,24.0,0.024,-0.23818562924861908,0.6673964858055115,0.023990385234355927,-0.004523772746324539,-0.0029366102535277605,-0.00026298390002921224,-0.32809510827064514,-0.6079498529434204,38.41767883300781,0.023990385234355927,-0.00031701274565421045,3.3205787985934876e-06,0.00024971223319880664,3.710850477218628,10.0,0.0,7000.0,7000.0,7000.0,7000.0,0.295,1.25,0.209,32.766,2.853,2019.0294189453125,809.9169921875,28.783479690551758,,False,
1783700197.29509,2026-07-10T09:16:37,419377,20260710_091631,,,,,,arming,,,,,,,,,False,-0.009404173120856285,-0.00320647144690156,0.9977031350135803,-0.0789799913764,-0.10172730684280396,-1.3027474880218506,1.0,-2.0,88.0,24.0,0.024,-0.23800483345985413,0.6675348877906799,0.023983130231499672,-0.0028776091057807207,-0.0018995844293385744,-0.0005902015254832804,-0.3251100480556488,-0.6158996820449829,38.348506927490234,0.023990385234355927,-0.00031701274565421045,3.3205787985934876e-06,0.00024971223319880664,3.710850477218628,10.0,0.0,7000.0,7000.0,7000.0,7000.0,0.295,1.25,0.209,32.766,2.853,2019.0294189453125,809.9169921875,28.783479690551758,,False,
1783700197.305366,2026-07-10T09:16:37,419387,20260710_091631,,,,,,arming,,,,,,,,,False,-0.010369471274316311,-0.007215079851448536,1.0010461807250977,0.06322946399450302,0.1967906653881073,0.021883035078644753,-1.0,2.0,79.0,24.0,0.024,-0.23800483345985413,0.6675348877906799,0.023983130231499672,-0.0028776091057807207,-0.0018995844293385744,-0.0005902015254832804,-0.3251100480556488,-0.6158996820449829,38.348506927490234,0.023990385234355927,-0.00031701274565421045,3.3205787985934876e-06,0.00024971223319880664,3.710850477218628,10.0,0.0,7000.0,7000.0,7000.0,7000.0,0.295,1.25,0.209,32.766,2.853,2019.0294189453125,809.9169921875,28.783479690551758,,False,
1783700197.3155227,2026-07-10T09:16:37,419397,20260710_091631,,,,,,arming,,,,,,,,,False,-0.00939366314560175,-0.0028793620876967907,0.9968060255050659,-0.2210395187139511,-0.11237558722496033,0.5453985929489136,0.0,-2.0,78.0,26.0,0.026,-0.2379942536354065,0.6675367951393127,0.023975562304258347,-0.00254394905641675,-0.0017938870005309582,-0.0006317516090348363,-0.32109692692756653,-0.6138095855712891,38.272239685058594,0.023990385234355927,-0.00031701274565421045,3.3205787985934876e-06,0.00024971223319880664,3.710850477218628,10.0,0.0,7000.0,7000.0,7000.0,7000.0,0.295,1.25,0.209,32.766,2.853,2019.0294189453125,809.9169921875,28.783479690551758,,False,
1783700197.325678,2026-07-10T09:16:37,419407,20260710_091631,,,,,,arming,,,,,,,,,False,-0.013198240660130978,-0.0051314192824065685,0.9997397065162659,-0.0497056283056736,-0.07683908194303513,0.4783092439174652,0.0,2.0,85.0,26.0,0.026,-0.2379942536354065,0.6675367951393127,0.023975562304258347,-0.00254394905641675,-0.0017938870005309582,-0.0006317516090348363,-0.32109692692756653,-0.6138095855712891,38.272239685058594,0.024953411892056465,0.004593349061906338,3.231532218705979e-06,0.00024629521067254245,3.710850477218628,10.0,0.0,7000.0,7000.0,7000.0,7000.0,0.289,1.252,0.211,32.766,32.766,2019.0294189453125,809.9169921875,28.783479690551758,,False,
1783700197.3358366,2026-07-10T09:16:37,419417,20260710_091631,,,,,,arming,,,,,,,,,False,-0.013252796605229378,-0.006400284823030233,0.998729944229126,-0.14830458164215088,0.5090329647064209,-0.46351006627082825,0.0,0.0,90.0,26.0,0.026,-0.23798272013664246,0.6675503849983215,0.02499990165233612,-0.002454291796311736,-0.001332380110397935,0.004468213301151991,-0.3190173804759979,-0.6126911640167236,38.19163131713867,0.024953411892056465,0.004593349061906338,3.231532218705979e-06,0.00024629521067254245,3.710850477218628,10.0,0.0,7000.0,7000.0,7000.0,7000.0,0.289,1.252,0.211,32.766,32.766,2019.0294189453125,809.9169921875,28.783479690551758,,False,
1783700197.346009,2026-07-10T09:16:37,419427,20260710_091631,,,,,,arming,,,,,,,,,False,-0.009891094639897346,-0.00524086132645607,0.9988625645637512,-0.11883337795734406,-0.46988165378570557,0.14984820783138275,0.0,0.0,86.0,26.0,0.026,-0.23798272013664246,0.6675503849983215,0.02499990165233612,-0.002454291796311736,-0.001332380110397935,0.004468213301151991,-0.3190173804759979,-0.6126911640167236,38.19163131713867,0.024953411892056465,0.004593349061906338,3.231532218705979e-06,0.00024629521067254245,3.710850477218628,10.0,0.0,7000.0,7000.0,7000.0,7000.0,0.289,1.252,0.211,32.766,32.766,2019.0294189453125,809.9169921875,28.783479690551758,,False,
1783700197.3561785,2026-07-10T09:16:37,419437,20260710_091631,,,,,,arming,,,,,,,,,False,-0.013986917212605476,-0.00838212575763464,0.999349057674408,-0.2015720009803772,-0.04559480771422386,0.12146099656820297,0.0,-1.0,91.0,24.0,0.024,-0.2380346953868866,0.6675194501876831,0.025089407339692116,-0.002680328441783786,-0.0017777284374460578,0.0043182699009776115,-0.32023656368255615,-0.6121446490287781,38.11836624145508,0.024953411892056465,0.004593349061906338,3.231532218705979e-06,0.00024629521067254245,3.710850477218628,10.0,0.0,7000.0,7000.0,7000.0,7000.0,0.289,1.252,0.211,32.766,32.766,2019.0294189453125,809.9169921875,28.783479690551758,,False,
1783700197.366344,2026-07-10T09:16:37,419447,20260710_091631,,,,,,arming,,,,,,,,,False,-0.015679743140935898,-0.003621224546805024,0.9974908232688904,0.1030086874961853,-0.5482335090637207,-0.10190995782613754,0.0,0.0,85.0,24.0,0.024,-0.2380346953868866,0.6675194501876831,0.025089407339692116,-0.002680328441783786,-0.0017777284374460578,0.0043182699009776115,-0.32023656368255615,-0.6121446490287781,38.11836624145508,0.024953411892056465,0.004593349061906338,3.231532218705979e-06,0.00024629521067254245,3.710850477218628,10.0,0.0,7000.0,7000.0,7000.0,7000.0,0.289,1.252,0.211,32.766,32.766,2019.0294189453125,809.9169921875,28.783479690551758,,False,
1783700197.3765032,2026-07-10T09:16:37,419457,20260710_091631,,,,,,arming,,,,,,,,,False,-0.008129567839205265,-0.006270030979067087,1.003065824508667,0.19180524349212646,0.6622692942619324,0.22850307822227478,1.0,0.0,80.0,24.0,0.024,-1.2282187071832595e-06,-3.3452155889790447e-07,-1.1274823918938637e-07,-0.0006141087505966425,-0.00016725074965506792,-5.639617666020058e-05,0.0005311004933901131,0.0019718909170478582,-0.0008570465724915266,-1.1274823918938637e-07,-5.637359936372377e-05,1.0,0.0001140000022132881,3.7161290645599365,10.0,0.0,7000.0,7000.0,7000.0,7000.0,0.289,1.252,0.211,32.766,32.766,2018.8489990234375,809.93310546875,28.79552459716797,,False,
1783700197.386663,2026-07-10T09:16:37,419467,20260710_091631,,,,,,arming,,,,,,,,,False,-0.017158348113298416,-0.007128577679395676,1.0017846822738647,0.016712810844182968,-0.1836676001548767,0.011603589169681072,-1.0,0.0,89.0,24.0,0.024,-1.2282187071832595e-06,-3.3452155889790447e-07,-1.1274823918938637e-07,-0.0006141087505966425,-0.00016725074965506792,-5.639617666020058e-05,0.0005311004933901131,0.0019718909170478582,-0.0008570465724915266,-1.1274823918938637e-07,-5.637359936372377e-05,1.0,0.0001140000022132881,3.7161290645599365,10.0,0.0,7000.0,7000.0,7000.0,7000.0,0.289,1.252,0.211,32.766,32.766,2018.8489990234375,809.93310546875,28.79552459716797,,False,
1783700197.3968217,2026-07-10T09:16:37,419477,20260710_091631,,,,,,arming,,,,,,,,,False,-0.011712857522070408,-0.006561651360243559,0.9961681365966797,0.0015263668028637767,-0.34866949915885925,0.33492082357406616,1.0,-1.0,89.0,24.0,0.024,-3.652303712442517e-05,-1.6205067367991433e-05,0.15400730073451996,-0.0030246844980865717,-0.0014641834422945976,0.0002148645871784538,-0.004813470412045717,0.0031932510901242495,0.003448394825682044,-1.1274823918938637e-07,-5.637359936372377e-05,1.0,0.0001140000022132881,3.7161290645599365,10.0,0.0,7000.0,7000.0,7000.0,7000.0,0.289,1.252,0.211,32.766,32.766,2018.8489990234375,809.93310546875,28.79552459716797,,False,
1783700197.4069965,2026-07-10T09:16:37,419490,20260710_091631,,,,,,arming,,,,,,,,,False,-0.015133078210055828,-0.005882511381059885,0.9980279207229614,0.00891462154686451,-0.44779419898986816,-0.19065798819065094,0.0,0.0,82.0,24.0,0.024,-9.323474660050124e-05,-9.197176404995844e-05,0.2171139419078827,-0.004787421319633722,-0.0035207357723265886,-0.00015340722166001797,-0.004813470412045717,0.0031932510901242495,0.003448394825682044,-1.1274823918938637e-07,-5.637359936372377e-05,1.0,0.0001140000022132881,3.7161290645599365,10.0,0.0,7000.0,7000.0,7000.0,7000.0,0.289,1.252,0.211,32.766,32.766,2018.8489990234375,809.93310546875,28.79552459716797,,False,
1783700197.4172165,2026-07-10T09:16:37,419497,20260710_091631,,,,,,arming,,,,,,,,,False,-0.013482741080224514,-0.003923605661839247,1.0005525350570679,0.07722490280866623,-0.4718976318836212,-0.1047528013586998,0.0,0.0,76.0,26.0,0.026,-9.323474660050124e-05,-9.197176404995844e-05,0.2171139419078827,-0.004787421319633722,-0.0035207357723265886,-0.00015340722166001797,0.005496605299413204,-0.00336735718883574,0.002767543075606227,-1.1274823918938637e-07,-5.637359936372377e-05,1.0,0.0001140000022132881,3.7161290645599365,10.0,0.0,7000.0,7000.0,7000.0,7000.0,0.289,1.252,0.211,32.766,32.766,2018.8489990234375,809.93310546875,28.79552459716797,,False,
1783700197.4273686,2026-07-10T09:16:37,419510,20260710_091631,,,,,,arming,,,,,,,,,False,-0.007194424979388714,-0.006567361764609814,1.0007623434066772,-0.019286176189780235,0.6686723828315735,0.2702764570713043,0.0,0.0,83.0,26.0,0.026,-0.00019695458468049765,-0.00015796985826455057,0.025998694822192192,-0.006941782310605049,-0.004312294069677591,-0.00028940531774424016,0.005496605299413204,-0.00336735718883574,0.002767543075606227,0.02600051835179329,-7.419960456900299e-05,6.276266049098922e-06,0.00018399978580418974,3.7161290645599365,10.0,0.0,7000.0,7000.0,7000.0,7000.0,0.294,1.254,0.213,32.766,2.865,2018.8489990234375,809.93310546875,28.79552459716797,,False,
1783700197.437523,2026-07-10T09:16:37,419517,20260710_091631,,,,,,arming,,,,,,,,,False,-0.013752998784184456,-0.004789081867784262,0.9987000823020935,0.019096756353974342,0.23037119209766388,0.2732783854007721,0.0,2.0,86.0,26.0,0.026,-0.00019695458468049765,-0.00015796985826455057,0.025998694822192192,-0.006941782310605049,-0.004312294069677591,-0.00028940531774424016,0.006677590310573578,-0.002348199486732483,0.003965815529227257,0.02600051835179329,-7.419960456900299e-05,6.276266049098922e-06,0.00018399978580418974,3.7161290645599365,10.0,0.0,7000.0,7000.0,7000.0,7000.0,0.294,1.254,0.213,32.766,2.865,2018.8489990234375,809.93310546875,28.79552459716797,,False,
1783700197.447677,2026-07-10T09:16:37,419527,20260710_091631,,,,,,arming,,,,,,,,,False,-0.005805127788335085,0.0003646922414191067,1.0009055137634277,0.008958501741290092,-0.012583093717694283,-0.11900637298822403,-1.0,0.0,88.0,26.0,0.026,-0.00019695458468049765,-0.00015796985826455057,0.025998694822192192,-0.006941782310605049,-0.004312294069677591,-0.00028940531774424016,0.006677590310573578,-0.002348199486732483,0.003965815529227257,0.02600051835179329,-7.419960456900299e-05,6.276266049098922e-06,0.00018399978580418974,3.7161290645599365,10.0,0.0,7000.0,7000.0,7000.0,7000.0,0.294,1.254,0.213,32.766,2.865,2018.8489990234375,809.93310546875,28.79552459716797,,False,
1783700197.458379,2026-07-10T09:16:37,419537,20260710_091631,,,,,,arming,,,,,,,,,False,-0.01542080007493496,-0.007757555227726698,1.0057207345962524,-0.08464214205741882,-0.34099772572517395,-0.31503167748451233,0.0,-1.0,87.0,23.0,0.023,-0.0004913994926027954,-9.651367872720584e-05,0.02599174529314041,-0.011087861843407154,-0.002561152447015047,-0.0003436656261328608,-0.054751865565776825,0.038772765547037125,0.002932537579908967,0.02600051835179329,-7.419960456900299e-05,6.276266049098922e-06,0.00018399978580418974,3.7161290645599365,10.0,0.0,7000.0,7000.0,7000.0,7000.0,0.294,1.254,0.213,32.766,2.865,2018.8489990234375,809.93310546875,28.79552459716797,,False,
1783700197.4685936,2026-07-10T09:16:37,419551,20260710_091631,,,,,,arming,,,,,,,,,False,-0.013596480712294579,-0.0049545858055353165,1.0006476640701294,0.0503639318048954,-0.22232748568058014,-0.7402037382125854,1.0,0.0,85.0,23.0,0.023,-0.00046691755414940417,-0.00025390443624928594,0.02443091757595539,-0.010002318769693375,-0.004906403366476297,-0.0015244940295815468,-0.016726715490221977,-0.04869067668914795,0.00463519524782896,0.02600051835179329,-7.419960456900299e-05,6.276266049098922e-06,0.00018399978580418974,3.7161290645599365,10.0,0.0,7000.0,7000.0,7000.0,7000.0,0.294,1.254,0.213,32.766,2.865,2018.8489990234375,809.93310546875,28.79552459716797,,False,
1783700197.4788709,2026-07-10T09:16:37,419557,20260710_091631,,,,,,arming,,,,,,,,,False,-0.006750492379069328,-0.0076244487427175045,0.9979811906814575,-0.3571326732635498,0.17535124719142914,0.37847161293029785,0.0,1.0,86.0,23.0,0.023,-0.00046691755414940417,-0.00025390443624928594,0.02443091757595539,-0.010002318769693375,-0.004906403366476297,-0.0015244940295815468,-0.016726715490221977,-0.04869067668914795,0.00463519524782896,0.02443091757595539,-0.0015344289131462574,3.445489028308657e-06,0.00025331208598800004,3.7161290645599365,10.0,0.0,7000.0,7000.0,7000.0,7000.0,0.294,1.254,0.213,32.766,2.865,2018.7451171875,809.9423828125,28.80502700805664,,False,
1783700197.4890373,2026-07-10T09:16:37,419571,20260710_091631,,,,,,arming,,,,,,,,,False,-0.014529011212289333,-0.006334904581308365,1.0010572671890259,0.5036232471466064,-0.5216689705848694,0.8881406188011169,0.0,0.0,94.0,23.0,0.023,-0.0007621792610734701,-0.0003190800780430436,0.02439797669649124,-0.012926268391311169,-0.005578652489930391,-0.0015888885827735066,-0.03040483593940735,-0.026520850136876106,0.0035754137206822634,0.02443091757595539,-0.0015344289131462574,3.445489028308657e-06,0.00025331208598800004,3.7161290645599365,10.0,0.0,7000.0,7000.0,7000.0,7000.0,0.294,1.254,0.213,32.766,2.865,2018.7451171875,809.9423828125,28.80502700805664,,False,
1783700197.4991925,2026-07-10T09:16:37,419577,20260710_091631,,,,,,arming,,,,,,,,,False,-0.005878124851733446,-0.007818959653377533,1.0011624097824097,-0.4017438292503357,0.18575385212898254,0.31115981936454773,0.0,-1.0,92.0,23.0,0.023,-0.0007621792610734701,-0.0003190800780430436,0.02439797669649124,-0.012926268391311169,-0.005578652489930391,-0.0015888885827735066,-0.03040483593940735,-0.026520850136876106,0.0035754137206822634,0.02443091757595539,-0.0015344289131462574,3.445489028308657e-06,0.00025331208598800004,3.7161290645599365,10.0,0.0,7000.0,7000.0,7000.0,7000.0,0.294,1.254,0.213,32.766,2.865,2018.7451171875,809.9423828125,28.80502700805664,,False,
1783700197.509395,2026-07-10T09:16:37,419591,20260710_091631,,,,,,arming,,,,,,,,,False,-0.017392978072166443,-0.009290128014981747,0.9985423684120178,0.2677796185016632,-0.273490846157074,-0.5330374836921692,0.0,0.0,80.0,23.0,0.023,-0.0007254161173477769,-0.0003837888070847839,0.02437424659729004,-0.01109552662819624,-0.006271145772188902,-0.0015567579539492726,-0.04815201088786125,-0.10848682373762131,-0.00037359577254392207,0.02443091757595539,-0.0015344289131462574,3.445489028308657e-06,0.00025331208598800004,3.7161290645599365,10.0,0.0,7000.0,7000.0,7000.0,7000.0,0.294,1.254,0.213,32.766,2.865,2018.7451171875,809.9423828125,28.80502700805664,,False,
1783700197.5195901,2026-07-10T09:16:37,419602,20260710_091631,,,,,,arming,,,,,,,,,False,-0.009147346019744873,-0.003723686560988426,0.9964479207992554,0.1755131483078003,-0.26465287804603577,-0.9610245823860168,-1.0,0.0,77.0,26.0,0.026,-0.0007254161173477769,-0.0003837888070847839,0.02437424659729004,-0.01109552662819624,-0.006271145772188902,-0.0015567579539492726,-0.04815201088786125,-0.10848682373762131,-0.00037359577254392207,0.025074955075979233,0.0011889389716088772,2.8901888526888797e-06,0.00028787465998902917,3.7161290645599365,10.0,0.0,7000.0,7000.0,7000.0,7000.0,0.294,1.254,0.213,32.766,2.865,2018.7451171875,809.9423828125,28.80502700805664,,False,
1783700197.5297434,2026-07-10T09:16:37,419611,20260710_091631,,,,,,arming,,,,,,,,,False,-0.007787083741277456,-0.007891504094004631,1.0010896921157837,-0.09354349970817566,0.17715930938720703,-0.26106393337249756,0.0,0.0,86.0,26.0,0.026,-0.0008619395084679127,-0.0002203305484727025,0.0250861756503582,-0.011629569344222546,-0.004106389824301004,0.0010220012627542019,-0.12440670281648636,-0.1338966190814972,0.0028294839430600405,0.025074955075979233,0.0011889389716088772,2.8901888526888797e-06,0.00028787465998902917,3.7161290645599365,10.0,0.0,7000.0,7000.0,7000.0,7000.0,0.297,1.2530000000000001,0.214,32.766,2.832,2018.7451171875,809.9423828125,28.80502700805664,,False,
1783700197.5399277,2026-07-10T09:16:37,419617,20260710_091631,,,,,,arming,,,,,,,,,False,-0.012531977146863937,-0.0004350807284936309,0.9991990923881531,0.34664812684059143,-0.15691021084785461,0.45844846963882446,0.0,0.0,85.0,26.0,0.026,-0.0008619395084679127,-0.0002203305484727025,0.0250861756503582,-0.011629569344222546,-0.004106389824301004,0.0010220012627542019,-0.12440670281648636,-0.1338966190814972,0.0028294839430600405,0.025074955075979233,0.0011889389716088772,2.8901888526888797e-06,0.00028787465998902917,3.7161290645599365,10.0,0.0,7000.0,7000.0,7000.0,7000.0,0.297,1.2530000000000001,0.214,32.766,2.832,2018.7451171875,809.9423828125,28.80502700805664,,False,
1783700197.550254,2026-07-10T09:16:37,419631,20260710_091631,,,,,,arming,,,,,,,,,False,-0.004742383491247892,-0.003547919914126396,0.9984074831008911,-0.356311172246933,0.5672845840454102,1.2694016695022583,0.0,0.0,88.0,26.0,0.026,-0.001114914659410715,-0.0003050959494430572,0.025106139481067657,-0.013281375169754028,-0.004205509554594755,0.0008900913526304066,-0.12349286675453186,-0.13510850071907043,0.0010402811458334327,0.025074955075979233,0.0011889389716088772,2.8901888526888797e-06,0.00028787465998902917,3.7161290645599365,10.0,0.0,7000.0,7000.0,7000.0,7000.0,0.297,1.2530000000000001,0.214,32.766,2.832,2018.7451171875,809.9423828125,28.80502700805664,,False,
1783700197.5604644,2026-07-10T09:16:37,419637,20260710_091631,,,,,,arming,,,,,,,,,False,-0.020931340754032135,-0.003984182607382536,1.0016024112701416,0.17927201092243195,-0.2505291998386383,0.49722450971603394,0.0,-1.0,80.0,27.0,0.027,-0.001114914659410715,-0.0003050959494430572,0.025106139481067657,-0.013281375169754028,-0.004205509554594755,0.0008900913526304066,-0.12349286675453186,-0.13510850071907043,0.0010402811458334327,0.025074955075979233,0.0011889389716088772,2.8901888526888797e-06,0.00028787465998902917,3.7161290645599365,10.0,0.0,7000.0,7000.0,7000.0,7000.0,0.297,1.2530000000000001,0.214,32.766,2.832,2018.7451171875,809.9423828125,28.80502700805664,,False,
1783700197.5706148,2026-07-10T09:16:37,419653,20260710_091631,,,,,,arming,,,,,,,,,False,-0.003805321641266346,-0.008648808114230633,0.9958183765411377,0.08427168428897858,0.2248908430337906,-0.49972355365753174,1.0,0.0,82.0,27.0,0.027,-0.0007164445705711842,-0.0005708005628548563,0.025954781100153923,-0.008661353960633278,-0.006400006823241711,0.005187753587961197,-0.08423281461000443,-0.2783850133419037,0.000742170843295753,0.025954781100153923,0.00513620488345623,3.129387550870888e-06,0.0003148351679556072,3.7161290645599365,10.0,0.0,7000.0,7000.0,7000.0,7000.0,0.297,1.2530000000000001,0.214,32.766,2.832,2018.7451171875,809.9423828125,28.80502700805664,,False,
1783700197.580764,2026-07-10T09:16:37,419657,20260710_091631,,,,,,arming,,,,,,,,,False,-0.015247623436152935,-0.009315021336078644,0.9990960955619812,-0.05330324545502663,0.414370059967041,-0.8921778202056885,0.0,0.0,77.0,27.0,0.027,-0.0007164445705711842,-0.0005708005628548563,0.025954781100153923,-0.008661353960633278,-0.006400006823241711,0.005187753587961197,-0.08423281461000443,-0.2783850133419037,0.000742170843295753,0.025954781100153923,0.00513620488345623,3.129387550870888e-06,0.0003148351679556072,3.7161290645599365,10.0,0.0,7000.0,7000.0,7000.0,7000.0,0.297,1.2530000000000001,0.214,32.766,2.832,2018.8433837890625,809.9334716796875,28.810043334960938,,False,
1783700197.5909553,2026-07-10T09:16:37,419671,20260710_091631,,,,,,arming,,,,,,,,,False,-0.009293925017118454,-0.004219539929181337,0.9995043277740479,0.05488995462656021,-0.26925891637802124,-0.6629680395126343,0.0,0.0,90.0,27.0,0.027,-0.0008973528165370226,-0.0007131912861950696,0.026056518778204918,-0.009881560690701008,-0.007669071666896343,0.005041379947215319,-0.08078256994485855,-0.2804943919181824,0.005508409813046455,0.025954781100153923,0.00513620488345623,3.129387550870888e-06,0.0003148351679556072,3.7161290645599365,10.0,0.0,7000.0,7000.0,7000.0,7000.0,0.297,1.2530000000000001,0.214,32.766,2.832,2018.8433837890625,809.9334716796875,28.810043334960938,,False,
1783700197.6012106,2026-07-10T09:16:37,419677,20260710_091631,,,,,,arming,,,,,,,,,False,-0.00914513599127531,-0.008210278116166592,1.0005589723587036,-0.5606669187545776,0.37408626079559326,0.5129618644714355,-1.0,1.0,88.0,27.0,0.027,-0.0008973528165370226,-0.0007131912861950696,0.026056518778204918,-0.009881560690701008,-0.007669071666896343,0.005041379947215319,-0.08078256994485855,-0.2804943919181824,0.005508409813046455,0.025954781100153923,0.00513620488345623,3.129387550870888e-06,0.0003148351679556072,3.7161290645599365,10.0,0.0,7000.0,7000.0,7000.0,7000.0,0.297,1.2530000000000001,0.214,32.766,2.832,2018.8433837890625,809.9334716796875,28.810043334960938,,False,
1783700197.6114025,2026-07-10T09:16:37,419691,20260710_091631,,,,,,arming,,,,,,,,,False,-0.013442179188132286,-0.0025293489452451468,0.9992244839668274,0.036700207740068436,-0.6900133490562439,0.5306270122528076,2.0,0.0,86.0,27.0,0.027,-0.001115152845159173,-0.000958251126576215,0.026158832013607025,-0.011136958375573158,-0.009386430494487286,0.004900882951915264,-0.0652121752500534,-0.28002846240997314,0.004197419621050358,0.025954781100153923,0.00513620488345623,3.129387550870888e-06,0.0003148351679556072,3.7161290645599365,10.0,0.0,7000.0,7000.0,7000.0,7000.0,0.297,1.2530000000000001,0.214,32.766,2.832,2018.8433837890625,809.9334716796875,28.810043334960938,,False,
1783700197.621557,2026-07-10T09:16:37,419704,20260710_091631,,,,,,arming,,,,,,,,,False,-0.006161200348287821,-0.006045982241630554,1.0019396543502808,-0.08123650401830673,0.2177593857049942,0.5317652225494385,0.0,0.0,80.0,26.0,0.026,-0.001115152845159173,-0.000958251126576215,0.026158832013607025,-0.011136958375573158,-0.009386430494487286,0.004900882951915264,-0.0652121752500534,-0.28002846240997314,0.004197419621050358,0.02613108605146408,0.00446327356621623,3.253531303926138e-06,0.0002884473360609263,3.7161290645599365,10.0,0.0,7000.0,7000.0,7000.0,7000.0,32.766,1.2550000000000001,0.217,32.766,2.858,2018.8433837890625,809.9334716796875,28.810043334960938,,False,
1783700197.631707,2026-07-10T09:16:37,419711,20260710_091631,,,,,,arming,,,,,,,,,False,-0.017264818772673607,-0.0006890160730108619,1.003525972366333,0.10676774382591248,-0.45125678181648254,-0.2317337542772293,-1.0,0.0,84.0,26.0,0.026,-0.0011456016218289733,-0.0006100329337641597,0.02618320845067501,-0.010529523715376854,-0.005413439124822617,0.004836891312152147,-0.149519145488739,-0.3117513358592987,0.0035518931690603495,0.02613108605146408,0.00446327356621623,3.253531303926138e-06,0.0002884473360609263,3.7161290645599365,10.0,0.0,7000.0,7000.0,7000.0,7000.0,32.766,1.2550000000000001,0.217,32.766,2.858,2018.8433837890625,809.9334716796875,28.810043334960938,,False,
1783700197.6418557,2026-07-10T09:16:37,419717,20260710_091631,,,,,,arming,,,,,,,,,False,-0.009039697237312794,-0.003954267129302025,0.9998769760131836,-0.1447472721338272,0.13369745016098022,-0.49215829372406006,0.0,0.0,87.0,26.0,0.026,-0.0011456016218289733,-0.0006100329337641597,0.02618320845067501,-0.010529523715376854,-0.005413439124822617,0.004836891312152147,-0.149519145488739,-0.3117513358592987,0.0035518931690603495,0.02613108605146408,0.00446327356621623,3.253531303926138e-06,0.0002884473360609263,3.7161290645599365,10.0,0.0,7000.0,7000.0,7000.0,7000.0,32.766,1.2550000000000001,0.217,32.766,2.858,2018.8433837890625,809.9334716796875,28.810043334960938,,False,
1783700197.6520097,2026-07-10T09:16:37,419731,20260710_091631,,,,,,arming,,,,,,,,,False,-0.016791818663477898,-0.008708355948328972,0.998080313205719,0.20092184841632843,0.4027358889579773,-0.24361573159694672,0.0,-1.0,85.0,26.0,0.026,-0.0007466424722224474,-0.000627708388492465,0.026286903768777847,-0.007079201750457287,-0.005110274534672499,0.0049825203604996204,-0.16263341903686523,-0.40158215165138245,0.0037818518467247486,0.02613108605146408,0.00446327356621623,3.253531303926138e-06,0.0002884473360609263,3.7161290645599365,10.0,0.0,7000.0,7000.0,7000.0,7000.0,32.766,1.2550000000000001,0.217,32.766,2.858,2018.8433837890625,809.9334716796875,28.810043334960938,,False,
1783700197.6621711,2026-07-10T09:16:37,419745,20260710_091631,,,,,,arming,,,,,,,,,False,-0.009304318577051163,-0.011442705988883972,1.0003360509872437,0.013522196561098099,-0.18237484991550446,0.4880817234516144,0.0,2.0,86.0,26.0,0.026,-0.0007466424722224474,-0.000627708388492465,0.026286903768777847,-0.007079201750457287,-0.005110274534672499,0.0049825203604996204,-0.16263341903686523,-0.40158215165138245,0.0037818518467247486,0.02613108605146408,0.00446327356621623,3.253531303926138e-06,0.0002884473360609263,3.7161290645599365,10.0,0.0,7000.0,7000.0,7000.0,7000.0,32.766,1.2550000000000001,0.217,32.766,2.858,2018.8433837890625,809.9334716796875,28.810043334960938,,False,
1783700197.6723354,2026-07-10T09:16:37,419754,20260710_091631,,,,,,arming,,,,,,,,,False,-0.009304318577051163,-0.011442705988883972,1.0003360509872437,0.013522196561098099,-0.18237484991550446,0.4880817234516144,0.0,-2.0,81.0,26.0,0.026,-0.0006313234916888177,-0.0005570575594902039,0.02624872326850891,-0.00573640177026391,-0.0049150120466947556,0.0038917693309485912,-0.18602195382118225,-0.44104331731796265,0.0035471736919134855,0.02624872326850891,0.0038315262645483017,3.5015366393054137e-06,0.0002825812844093889,3.7161290645599365,10.0,0.0,7000.0,7000.0,7000.0,7000.0,32.766,1.2550000000000001,0.217,32.766,2.858,2018.8433837890625,809.9334716796875,28.810043334960938,,False,
1783700197.682535,2026-07-10T09:16:37,419765,20260710_091631,,,,,,arming,,,,,,,,,False,-0.00907572079449892,-0.007369589991867542,0.9970065951347351,0.05960509181022644,-0.00035606103483587503,0.41673627495765686,-1.0,1.0,88.0,26.0,0.026,-0.0006313234916888177,-0.0005570575594902039,0.02624872326850891,-0.00573640177026391,-0.0049150120466947556,0.0038917693309485912,-0.18602195382118225,-0.44104331731796265,0.0035471736919134855,0.02624872326850891,0.0038315262645483017,3.5015366393054137e-06,0.0002825812844093889,3.7161290645599365,10.0,0.0,7000.0,7000.0,7000.0,7000.0,32.766,1.2550000000000001,0.217,32.766,2.858,2018.7996826171875,809.9375610351562,28.817895889282227,,False,
1783700197.692724,2026-07-10T09:16:37,419775,20260710_091631,,,,,,arming,,,,,,,,,False,-0.014493203721940517,-0.0016577990027144551,1.0013283491134644,0.06621748954057693,0.11030715703964233,-0.0871444046497345,1.0,0.0,85.0,26.0,0.026,-0.000891349685844034,-0.000497455766890198,0.026325972750782967,-0.007479071617126465,-0.00429591815918684,0.003613444045186043,-0.2038494199514389,-0.42719224095344543,0.0021019335836172104,0.02624872326850891,0.0038315262645483017,3.5015366393054137e-06,0.0002825812844093889,3.7161290645599365,10.0,0.0,7000.0,7000.0,7000.0,7000.0,32.766,1.2550000000000001,0.217,32.766,2.858,2018.7996826171875,809.9375610351562,28.817895889282227,,False,
1783700197.7029645,2026-07-10T09:16:37,419785,20260710_091631,,,,,,arming,,,,,,,,,False,-0.005902254953980446,-0.009367415681481361,0.9988756775856018,-0.48288434743881226,-0.11247119307518005,-0.5681455135345459,0.0,0.0,83.0,26.0,0.026,-0.000891349685844034,-0.000497455766890198,0.026325972750782967,-0.007479071617126465,-0.00429591815918684,0.003613444045186043,-0.2038494199514389,-0.42719224095344543,0.0021019335836172104,0.02624872326850891,0.0038315262645483017,3.5015366393054137e-06,0.0002825812844093889,3.7161290645599365,10.0,0.0,7000.0,7000.0,7000.0,7000.0,32.766,1.2550000000000001,0.217,32.766,2.858,2018.7996826171875,809.9375610351562,28.817895889282227,,False,
1783700197.7131488,2026-07-10T09:16:37,419795,20260710_091631,,,,,,arming,,,,,,,,,False,-0.010038350708782673,-0.009976299479603767,1.002179503440857,0.39678484201431274,-0.054872266948223114,-0.5558921098709106,0.0,0.0,86.0,26.0,0.026,-0.0010485847014933825,-0.0005868664011359215,0.02639772929251194,-0.008255010470747948,-0.004491808358579874,0.003601034637540579,-0.20257095992565155,-0.42668941617012024,0.0032329545356333256,0.02624872326850891,0.0038315262645483017,3.5015366393054137e-06,0.0002825812844093889,3.7161290645599365,10.0,0.0,7000.0,7000.0,7000.0,7000.0,32.766,1.2550000000000001,0.217,32.766,2.858,2018.7996826171875,809.9375610351562,28.817895889282227,,False,
1783700197.7233155,2026-07-10T09:16:37,419805,20260710_091631,,,,,,arming,,,,,,,,,False,-0.009963166899979115,-0.0016869987593963742,1.0009409189224243,-0.38539713621139526,-0.35414665937423706,0.03196278214454651,0.0,-1.0,78.0,25.0,0.025,-0.0010485847014933825,-0.0005868664011359215,0.02639772929251194,-0.008255010470747948,-0.004491808358579874,0.003601034637540579,-0.20257095992565155,-0.42668941617012024,0.0032329545356333256,0.025723876431584358,-0.0005625514313578606,3.3880560295074247e-06,0.00025732434005476534,3.7161290645599365,10.0,0.0,7000.0,7000.0,7000.0,7000.0,32.766,1.256,0.211,32.766,32.766,2018.7996826171875,809.9375610351562,28.817895889282227,,False,
1783700197.733477,2026-07-10T09:16:37,419815,20260710_091631,,,,,,arming,,,,,,,,,False,-0.00879889726638794,-0.010042942129075527,0.9989246726036072,0.26761025190353394,0.2350243330001831,1.0004929304122925,0.0,0.0,86.0,25.0,0.025,-0.0006247428245842457,-0.0006172280409373343,0.02571938745677471,-0.004869360942393541,-0.004996823612600565,-0.0003906101919710636,-0.20700237154960632,-0.4885978698730469,0.004935678094625473,0.025723876431584358,-0.0005625514313578606,3.3880560295074247e-06,0.00025732434005476534,3.7161290645599365,10.0,0.0,7000.0,7000.0,7000.0,7000.0,32.766,1.256,0.211,32.766,32.766,2018.7996826171875,809.9375610351562,28.817895889282227,,False,
1783700197.7436376,2026-07-10T09:16:37,419825,20260710_091631,,,,,,arming,,,,,,,,,False,-0.012659764848649502,-0.0012038942659273744,0.9977887868881226,-0.45140597224235535,-0.07880161702632904,0.4731280207633972,-1.0,2.0,83.0,25.0,0.025,-0.0006247428245842457,-0.0006172280409373343,0.02571938745677471,-0.004869360942393541,-0.004996823612600565,-0.0003906101919710636,-0.20700237154960632,-0.4885978698730469,0.004935678094625473,0.025723876431584358,-0.0005625514313578606,3.3880560295074247e-06,0.00025732434005476534,3.7161290645599365,10.0,0.0,7000.0,7000.0,7000.0,7000.0,32.766,1.256,0.211,32.766,32.766,2018.7996826171875,809.9375610351562,28.817895889282227,,False,
1783700197.7537951,2026-07-10T09:16:37,419835,20260710_091631,,,,,,arming,,,,,,,,,False,-0.007402671501040459,-0.00936080515384674,0.9997531771659851,0.31342950463294983,0.03685227781534195,0.6222782731056213,1.0,-2.0,90.0,25.0,0.025,-0.0005304920487105846,-0.0005314276204444468,0.02571793645620346,-0.0038578296080231667,-0.004090382717549801,-0.0005144966999068856,-0.22292301058769226,-0.5069026947021484,0.0037064584903419018,0.025723876431584358,-0.0005625514313578606,3.3880560295074247e-06,0.00025732434005476534,3.7161290645599365,10.0,0.0,7000.0,7000.0,7000.0,7000.0,32.766,1.256,0.211,32.766,32.766,2018.7996826171875,809.9375610351562,28.817895889282227,,False,
1783700197.7641368,2026-07-10T09:16:37,419847,20260710_091631,,,,,,arming,,,,,,,,,False,-0.016337862238287926,-0.00302858161740005,0.9967412352561951,-0.2901742160320282,-0.6361927390098572,0.09265872836112976,0.0,0.0,78.0,27.0,0.027,-0.0005304920487105846,-0.0005314276204444468,0.02571793645620346,-0.0038578296080231667,-0.004090382717549801,-0.0005144966999068856,-0.22292301058769226,-0.5069026947021484,0.0037064584903419018,0.025723876431584358,-0.0005625514313578606,3.3880560295074247e-06,0.00025732434005476534,3.7161290645599365,10.0,0.0,7000.0,7000.0,7000.0,7000.0,32.766,1.256,0.211,32.766,32.766,2018.7996826171875,809.9375610351562,28.817895889282227,,False,
1783700197.774285,2026-07-10T09:16:37,419857,20260710_091631,,,,,,arming,,,,,,,,,False,-0.008950632996857166,-0.008284492418169975,0.9955425262451172,-0.24569806456565857,0.12255116552114487,-0.34095340967178345,-1.0,0.0,85.0,27.0,0.027,-0.0013355903793126345,-0.0005425648996606469,0.026334919035434723,-0.008589676581323147,-0.003986829426139593,0.0027569301892071962,-0.23046298325061798,-0.43629539012908936,0.003184109926223755,0.026334919035434723,0.0026753896381706,3.481933845250751e-06,0.0002624297048896551,3.7161290645599365,10.0,0.0,7000.0,7000.0,7000.0,7000.0,32.766,1.256,0.211,32.766,32.766,2018.7996826171875,809.9373168945312,28.824010848999023,,False,
1783700197.784437,2026-07-10T09:16:37,419867,20260710_091631,,,,,,arming,,,,,,,,,False,-0.01186403539031744,-0.009840361773967743,1.0013577938079834,-0.04914626479148865,0.09410446137189865,-1.050222396850586,0.0,0.0,82.0,27.0,0.027,-0.0013355903793126345,-0.0005425648996606469,0.026334919035434723,-0.008589676581323147,-0.003986829426139593,0.0027569301892071962,-0.23046298325061798,-0.43629539012908936,0.003184109926223755,0.026334919035434723,0.0026753896381706,3.481933845250751e-06,0.0002624297048896551,3.7161290645599365,10.0,0.0,7000.0,7000.0,7000.0,7000.0,32.766,1.256,0.211,32.766,32.766,2018.7996826171875,809.9373168945312,28.824010848999023,,False,
1783700197.7945852,2026-07-10T09:16:37,419877,20260710_091631,,,,,,arming,,,,,,,,,False,-0.01064220443367958,-0.0031294601503759623,0.9981499910354614,0.00637655658647418,-0.3339891731739044,-0.6219125390052795,0.0,0.0,84.0,27.0,0.027,-0.001347578363493085,-0.00012993258133064955,0.02638414315879345,-0.008204935118556023,-0.0017775485757738352,0.0020457247737795115,-0.2747097909450531,-0.452065646648407,0.0070885843597352505,0.026334919035434723,0.0026753896381706,3.481933845250751e-06,0.0002624297048896551,3.7161290645599365,10.0,0.0,7000.0,7000.0,7000.0,7000.0,32.766,1.256,0.211,32.766,32.766,2018.7996826171875,809.9373168945312,28.824010848999023,,False,
1783700197.804735,2026-07-10T09:16:37,419887,20260710_091631,,,,,,arming,,,,,,,,,False,-0.009459851309657097,-0.00531518179923296,1.0003750324249268,0.2599930167198181,0.2104296088218689,0.5688448548316956,0.0,-1.0,81.0,27.0,0.027,-0.001347578363493085,-0.00012993258133064955,0.02638414315879345,-0.008204935118556023,-0.0017775485757738352,0.0020457247737795115,-0.2747097909450531,-0.452065646648407,0.0070885843597352505,0.026334919035434723,0.0026753896381706,3.481933845250751e-06,0.0002624297048896551,3.7161290645599365,10.0,0.0,7000.0,7000.0,7000.0,7000.0,32.766,1.256,0.211,32.766,32.766,2018.7996826171875,809.9373168945312,28.824010848999023,,False,
1783700197.8149312,2026-07-10T09:16:37,419897,20260710_091631,,,,,,arming,,,,,,,,,False,-0.013181331567466259,-0.0004891317221336067,1.0011978149414062,-0.21288852393627167,0.1533358097076416,0.5031988024711609,0.0,1.0,81.0,27.0,0.027,-0.0008951392956078053,-0.0001473475422244519,0.026429060846567154,-0.005132041405886412,-0.0017540345434099436,0.0019441988551989198,-0.2748992145061493,-0.5025604963302612,0.006060370244085789,0.026334919035434723,0.0026753896381706,3.481933845250751e-06,0.0002624297048896551,3.7161290645599365,10.0,0.0,7000.0,7000.0,7000.0,7000.0,32.766,1.256,0.211,32.766,32.766,2018.7996826171875,809.9373168945312,28.824010848999023,,False,
1783700197.825146,2026-07-10T09:16:37,419907,20260710_091631,,,,,,arming,,,,,,,,,False,-0.007096245884895325,-0.008069624193012714,0.9989919066429138,0.4394705891609192,0.2672783434391022,0.4825836420059204,1.0,-2.0,88.0,27.0,0.027,-0.0008951392956078053,-0.0001473475422244519,0.026429060846567154,-0.005132041405886412,-0.0017540345434099436,0.0019441988551989198,-0.2748992145061493,-0.5025604963302612,0.006060370244085789,0.026734812185168266,0.003595033660531044,3.327504828121164e-06,0.0002507768804207444,3.7161290645599365,10.0,0.0,7000.0,7000.0,7000.0,7000.0,0.289,1.248,0.212,32.766,2.846,2018.7996826171875,809.9373168945312,28.824010848999023,,False,
1783700197.835295,2026-07-10T09:16:37,419917,20260710_091631,,,,,,arming,,,,,,,,,False,-0.016614582389593124,-0.0034878619480878115,1.0001810789108276,-0.22036975622177124,-0.27467581629753113,-0.4414680004119873,0.0,0.0,86.0,27.0,0.027,-0.00039786461275070906,-0.0005118538974784315,0.026774169877171516,-0.001922155381180346,-0.0033115039113909006,0.0036524131428450346,-0.24776990711688995,-0.5517935156822205,0.004277421161532402,0.026734812185168266,0.003595033660531044,3.327504828121164e-06,0.0002507768804207444,3.7161290645599365,10.0,0.0,7000.0,7000.0,7000.0,7000.0,0.289,1.248,0.212,32.766,2.846,2018.7996826171875,809.9373168945312,28.824010848999023,,False,
1783700197.8454428,2026-07-10T09:16:37,419927,20260710_091631,,,,,,arming,,,,,,,,,False,-0.007226451300084591,-0.01023790892213583,0.9955666065216064,0.22990211844444275,0.47623497247695923,-0.33596131205558777,0.0,1.0,94.0,27.0,0.027,-0.00039786461275070906,-0.0005118538974784315,0.026774169877171516,-0.001922155381180346,-0.0033115039113909006,0.0036524131428450346,-0.24776990711688995,-0.5517935156822205,0.004277421161532402,0.026734812185168266,0.003595033660531044,3.327504828121164e-06,0.0002507768804207444,3.7161290645599365,10.0,0.0,7000.0,7000.0,7000.0,7000.0,0.289,1.248,0.212,32.766,2.846,2018.7996826171875,809.9373168945312,28.824010848999023,,False,
1783700197.855603,2026-07-10T09:16:37,419937,20260710_091631,,,,,,arming,,,,,,,,,False,-0.01155069563537836,-0.0025883042253553867,1.0037624835968018,0.00783705897629261,-0.34177884459495544,-0.7366184592247009,-1.0,0.0,81.0,22.0,0.022,-0.0007986620767042041,-0.0005157982814125717,0.026847418397665024,-0.004587250761687756,-0.0031747163739055395,0.0034677733201533556,-0.2505318224430084,-0.5227457880973816,0.0036893729120492935,0.026734812185168266,0.003595033660531044,3.327504828121164e-06,0.0002507768804207444,3.7161290645599365,10.0,0.0,7000.0,7000.0,7000.0,7000.0,0.289,1.248,0.212,32.766,2.846,2018.7996826171875,809.9373168945312,28.824010848999023,,False,
1783700197.8657618,2026-07-10T09:16:37,419947,20260710_091631,,,,,,arming,,,,,,,,,False,-0.007529322057962418,-0.004489358514547348,1.0023669004440308,-0.05175864323973656,-0.08037222921848297,-0.056499406695365906,2.0,0.0,78.0,22.0,0.022,-0.0007986620767042041,-0.0005157982814125717,0.026847418397665024,-0.004587250761687756,-0.0031747163739055395,0.0034677733201533556,-0.2505318224430084,-0.5227457880973816,0.0036893729120492935,0.026734812185168266,0.003595033660531044,3.327504828121164e-06,0.0002507768804207444,3.7161290645599365,10.0,0.0,7000.0,7000.0,7000.0,7000.0,0.289,1.248,0.212,32.766,2.846,2018.7996826171875,809.9373168945312,28.824010848999023,,False,
1783700197.8759613,2026-07-10T09:16:37,419957,20260710_091631,,,,,,arming,,,,,,,,,False,-0.011729678139090538,-0.0063510676845908165,1.0019142627716064,-0.08744541555643082,0.02053188905119896,0.22851525247097015,-1.0,0.0,86.0,22.0,0.022,-0.0007432042038999498,-0.0008377087651751935,0.024586282670497894,-0.003935898654162884,-0.004992504604160786,-0.008436000905930996,-0.23069830238819122,-0.528194785118103,0.004239218309521675,0.024586282670497894,-0.00849197804927826,3.4224594855913892e-06,0.0002641639148350805,3.721407651901245,10.0,0.0,7000.0,7000.0,7000.0,7000.0,0.289,1.248,0.212,32.766,2.846,2018.739501953125,809.9429321289062,28.830217361450195,,False,
1783700197.886172,2026-07-10T09:16:37,419967,20260710_091631,,,,,,arming,,,,,,,,,False,-0.011004622094333172,-0.0019200143869966269,0.9984325170516968,0.18050655722618103,0.250370591878891,0.464394211769104,0.0,0.0,83.0,22.0,0.022,-0.0007432042038999498,-0.0008377087651751935,0.024586282670497894,-0.003935898654162884,-0.004992504604160786,-0.008436000905930996,-0.23069830238819122,-0.528194785118103,0.004239218309521675,0.024586282670497894,-0.00849197804927826,3.4224594855913892e-06,0.0002641639148350805,3.721407651901245,10.0,0.0,7000.0,7000.0,7000.0,7000.0,0.289,1.248,0.212,32.766,2.846,2018.739501953125,809.9429321289062,28.830217361450195,,False,
1783700197.896364,2026-07-10T09:16:37,419977,20260710_091631,,,,,,arming,,,,,,,,,False,-0.010818112641572952,-0.010552152059972286,1.0015188455581665,0.1697540432214737,0.2943810820579529,0.3070295751094818,0.0,1.0,86.0,22.0,0.022,-0.0007444570073857903,-0.000466407771455124,0.02442234382033348,-0.0037367253098636866,-0.002477480098605156,-0.008143018931150436,-0.2616977393627167,-0.5339118242263794,0.001573096727952361,0.024586282670497894,-0.00849197804927826,3.4224594855913892e-06,0.0002641639148350805,3.721407651901245,10.0,0.0,7000.0,7000.0,7000.0,7000.0,0.289,1.248,0.212,32.766,2.846,2018.739501953125,809.9429321289062,28.830217361450195,,False,
1783700197.9065132,2026-07-10T09:16:37,419987,20260710_091631,,,,,,arming,,,,,,,,,False,-0.017672186717391014,-0.00332583487033844,1.0007928609848022,-0.2699887156486511,-0.19950787723064423,-0.2885977327823639,0.0,-1.0,79.0,22.0,0.022,-0.0007444570073857903,-0.000466407771455124,0.02442234382033348,-0.0037367253098636866,-0.002477480098605156,-0.008143018931150436,-0.2616977393627167,-0.5339118242263794,0.001573096727952361,0.024586282670497894,-0.00849197804927826,3.4224594855913892e-06,0.0002641639148350805,3.721407651901245,10.0,0.0,7000.0,7000.0,7000.0,7000.0,0.289,1.248,0.212,32.766,2.846,2018.739501953125,809.9429321289062,28.830217361450195,,False,
1783700197.9166763,2026-07-10T09:16:37,419997,20260710_091631,,,,,,arming,,,,,,,,,False,-0.007719691842794418,-0.007826922461390495,0.999625563621521,-0.28305965662002563,-0.30743488669395447,-0.41829875111579895,-1.0,1.0,79.0,26.0,0.026,-0.0006912742392159998,-0.00042934538214467466,0.024261947721242905,-0.0033407644368708134,-0.002207621466368437,-0.007849588990211487,-0.26807424426078796,-0.5427876710891724,0.0017636113334447145,0.024586282670497894,-0.00849197804927826,3.4224594855913892e-06,0.0002641639148350805,3.721407651901245,10.0,0.0,7000.0,7000.0,7000.0,7000.0,0.289,1.248,0.212,32.766,2.846,2018.739501953125,809.9429321289062,28.830217361450195,,False,
