pc_time_s,pc_time_iso,cf_time_ms,session_id,motif_id,motif_type,motif_phase,rep_index,motif_param_json,flight_phase,cmd_vx_m_s,cmd_vy_m_s,cmd_yaw_rate_deg_s,cmd_height_m,cmd_vx_raw_m_s,cmd_vy_raw_m_s,cmd_yaw_rate_raw_deg_s,cmd_height_raw_m,safety_override_active,acc_x_g,acc_y_g,acc_z_g,gyro_x_dps,gyro_y_dps,gyro_z_dps,flow_delta_x_px,flow_delta_y_px,flow_squal,zrange_mm,zrange_m,x_m,y_m,z_m,vx_m_s,vy_m_s,vz_m_s,roll_deg,pitch_deg,yaw_deg,kalman_state_z_m,kalman_state_pz,kalman_var_z,kalman_var_pz,battery_v,battery_level_pct,pm_state,motor_m1,motor_m2,motor_m3,motor_m4,range_front_m,range_back_m,range_left_m,range_right_m,range_up_m,baro_asl_m,baro_pressure_hpa,baro_temp_c,safety_flag,should_land,event
1783648059.3860571,2026-07-09T18:47:39,,20260709_184731,,,,,,ground_idle,,,,,,,,,False,,,,,,,,,,,,,,,,,,,,,,,,,,,,,,,,,,,,,,,,,False,
1783648059.3965511,2026-07-09T18:47:39,,20260709_184731,,,,,,ground_idle,,,,,,,,,False,,,,,,,,,,,,,,,,,,,,,,,,,,,,,,,,,,,,,,,,,False,
1783648059.4066885,2026-07-09T18:47:39,,20260709_184731,,,,,,ground_idle,,,,,,,,,False,,,,,,,,,,,,,,,,,,,,,,,,,,,,,,,,,,,,,,,,,False,
1783648059.4168663,2026-07-09T18:47:39,13839,20260709_184731,,,,,,ground_idle,,,,,,,,,False,-0.018740976229310036,-0.022392962127923965,1.0012528896331787,-0.07694484293460846,0.3161582946777344,-0.07405351102352142,-6.0,4.0,31.0,15.0,0.015,,,,,,,,,,,,,,,,,,,,,,,,,,,,,,False,
1783648059.4270203,2026-07-09T18:47:39,13854,20260709_184731,,,,,,ground_idle,,,,,,,,,False,-0.02044031210243702,-0.021037546917796135,1.0007802248001099,0.14265725016593933,-0.11727957427501678,-0.03919793292880058,-1.0,-1.0,34.0,15.0,0.015,-0.0005426909774541855,0.0004042537766508758,0.01514115184545517,-0.002152304630726576,0.002485965844243765,0.003536221105605364,-1.2281008958816528,-1.1264369487762451,-0.020899292081594467,,,,,,,,,,,,,,,,,,,,,False,
1783648059.4371586,2026-07-09T18:47:39,13877,20260709_184731,,,,,,ground_idle,,,,,,,,,False,-0.018763376399874687,-0.020576322451233864,1.0026798248291016,0.057868704199790955,-0.03487950190901756,-0.019137127324938774,-5.0,3.0,41.0,15.0,0.015,-0.0005201541353017092,0.0003900149604305625,0.015230308286845684,-0.002402897458523512,0.0023460283409804106,0.0038278657011687756,-1.2236807346343994,-1.1297612190246582,-0.022290179505944252,,,,,,,,,,,,,,,,,,,,,False,
1783648059.4472957,2026-07-09T18:47:39,13889,20260709_184731,,,,,,ground_idle,,,,,,,,,False,-0.020953744649887085,-0.018596626818180084,1.0009428262710571,0.42038124799728394,0.36262208223342896,-0.1198907345533371,-4.0,0.0,27.0,15.0,0.015,-0.0005201541353017092,0.0003900149604305625,0.015230308286845684,-0.002402897458523512,0.0023460283409804106,0.0038278657011687756,-1.2236807346343994,-1.1297612190246582,-0.022290179505944252,0.015278746373951435,0.004058339633047581,4.017441824544221e-06,0.00021080038277432323,,,,,,,,,,,,,,,,,False,
1783648059.4574492,2026-07-09T18:47:39,13892,20260709_184731,,,,,,ground_idle,,,,,,,,,False,-0.020953744649887085,-0.018596626818180084,1.0009428262710571,0.42038124799728394,0.36262208223342896,-0.1198907345533371,-4.0,0.0,27.0,15.0,0.015,-0.0005032973131164908,0.0003885919868480414,0.015320654027163982,-0.002085862448439002,0.0023495571222156286,0.004325669724494219,-1.2236807346343994,-1.1297612190246582,-0.022290179505944252,0.015278746373951435,0.004058339633047581,4.017441824544221e-06,0.00021080038277432323,3.6633431911468506,10.0,0.0,0.0,0.0,0.0,0.0,,,,,,,,,,False,
1783648059.4675977,2026-07-09T18:47:39,13899,20260709_184731,,,,,,ground_idle,,,,,,,,,False,-0.02382982335984707,-0.021194156259298325,0.9999106526374817,-0.07621422410011292,0.1876489669084549,-0.016874196007847786,8.0,-1.0,26.0,16.0,0.016,-0.0005032973131164908,0.0003885919868480414,0.015320654027163982,-0.002085862448439002,0.0023495571222156286,0.004325669724494219,-1.2227741479873657,-1.1331859827041626,-0.021440166980028152,0.015278746373951435,0.004058339633047581,4.017441824544221e-06,0.00021080038277432323,3.6633431911468506,10.0,0.0,0.0,0.0,0.0,0.0,,,,,,,,,,False,
1783648059.4777591,2026-07-09T18:47:39,13907,20260709_184731,,,,,,ground_idle,,,,,,,,,False,-0.02325826697051525,-0.019924772903323174,1.0003952980041504,0.1513463854789734,-0.46509113907814026,0.07954221218824387,8.0,-1.0,26.0,16.0,0.016,-0.0005032973131164908,0.0003885919868480414,0.015320654027163982,-0.002085862448439002,0.0023495571222156286,0.004325669724494219,-1.2227741479873657,-1.1331859827041626,-0.021440166980028152,0.015278746373951435,0.004058339633047581,4.017441824544221e-06,0.00021080038277432323,3.6633431911468506,10.0,0.0,0.0,0.0,0.0,0.0,32.766,32.766,32.766,32.766,32.766,,,,,False,
1783648059.48796,2026-07-09T18:47:39,13929,20260709_184731,,,,,,ground_idle,,,,,,,,,False,-0.020630715414881706,-0.023405160754919052,1.0035068988800049,-0.014053146354854107,-0.09589671343564987,0.054855410009622574,4.0,-3.0,48.0,16.0,0.016,-0.0002777560439426452,-0.00048589971265755594,0.015739742666482925,-0.001360095920972526,-0.0018472943920642138,0.006037630140781403,-1.1857024431228638,-1.1441158056259155,-0.023189475759863853,0.015278746373951435,0.004058339633047581,4.017441824544221e-06,0.00021080038277432323,3.6633431911468506,10.0,0.0,0.0,0.0,0.0,0.0,32.766,32.766,32.766,32.766,32.766,,,,,False,
1783648059.4981565,2026-07-09T18:47:39,13930,20260709_184731,,,,,,ground_idle,,,,,,,,,False,-0.020630715414881706,-0.023405160754919052,1.0035068988800049,-0.014053146354854107,-0.09589671343564987,0.054855410009622574,4.0,-3.0,48.0,16.0,0.016,-0.0007150270394049585,-0.0013589743757620454,0.015871185809373856,-0.0036384330596774817,-0.006087626330554485,0.006310418248176575,-1.1857024431228638,-1.1441158056259155,-0.023189475759863853,0.015278746373951435,0.004058339633047581,4.017441824544221e-06,0.00021080038277432323,3.6633431911468506,10.0,0.0,0.0,0.0,0.0,0.0,32.766,32.766,32.766,32.766,32.766,,,,,False,
1783648059.508307,2026-07-09T18:47:39,13934,20260709_184731,,,,,,ground_idle,,,,,,,,,False,-0.020630715414881706,-0.023405160754919052,1.0035068988800049,-0.014053146354854107,-0.09589671343564987,0.054855410009622574,4.0,-3.0,48.0,16.0,0.016,-0.0007150270394049585,-0.0013589743757620454,0.015871185809373856,-0.0036384330596774817,-0.006087626330554485,0.006310418248176575,-1.1475529670715332,-1.1281217336654663,-0.023280082270503044,0.015585171990096569,0.004726826678961515,2.7047392450185725e-06,0.00016839859017636627,3.6633431911468506,10.0,0.0,0.0,0.0,0.0,0.0,32.766,32.766,32.766,32.766,32.766,,,,,False,
1783648059.518453,2026-07-09T18:47:39,13947,20260709_184731,,,,,,ground_idle,,,,,,,,,False,-0.024001935496926308,-0.021882668137550354,0.999239981174469,-0.0839664489030838,0.034044500440359116,0.03445642068982124,-4.0,0.0,26.0,15.0,0.015,-0.0007150270394049585,-0.0013589743757620454,0.015871185809373856,-0.0036384330596774817,-0.006087626330554485,0.006310418248176575,-1.1475529670715332,-1.1281217336654663,-0.023280082270503044,0.015585171990096569,0.004726826678961515,2.7047392450185725e-06,0.00016839859017636627,3.6633431911468506,10.0,0.0,0.0,0.0,0.0,0.0,32.766,32.766,32.766,32.766,32.766,,,,,False,
1783648059.528596,2026-07-09T18:47:39,13959,20260709_184731,,,,,,ground_idle,,,,,,,,,False,-0.02130933664739132,-0.023101989179849625,1.0005810260772705,-0.06375854462385178,-0.11292620748281479,0.14942555129528046,-1.0,-7.0,45.0,15.0,0.015,-0.0013652637135237455,-0.0004878306936006993,0.015631817281246185,-0.007149872370064259,-0.001667963108047843,0.004766149912029505,-1.1842937469482422,-1.102799892425537,-0.02040354534983635,0.015585171990096569,0.004726826678961515,2.7047392450185725e-06,0.00016839859017636627,3.6633431911468506,10.0,0.0,0.0,0.0,0.0,0.0,32.766,32.766,32.766,32.766,32.766,2023.6280517578125,809.5081787109375,29.689788818359375,,False,
1783648059.538744,2026-07-09T18:47:39,13979,20260709_184731,,,,,,ground_idle,,,,,,,,,False,-0.019988028332591057,-0.02251662313938141,1.0002610683441162,0.009658519178628922,-0.13275568187236786,-0.161424919962883,3.0,-3.0,45.0,15.0,0.015,-0.001351678278297186,-0.00048518102266825736,0.015751393511891365,-0.00720453355461359,-0.0019003236666321754,0.005029588472098112,-1.1836369037628174,-1.1041196584701538,-0.019610239192843437,0.015585171990096569,0.004726826678961515,2.7047392450185725e-06,0.00016839859017636627,3.6633431911468506,10.0,0.0,0.0,0.0,0.0,0.0,32.766,32.766,32.766,32.766,32.766,2023.6280517578125,809.5081787109375,29.689788818359375,,False,
1783648059.548928,2026-07-09T18:47:39,13987,20260709_184731,,,,,,ground_idle,,,,,,,,,False,-0.02058911696076393,-0.022184981033205986,0.9979842901229858,-0.0026095793582499027,-0.5005229711532593,0.045315008610486984,3.0,-3.0,45.0,15.0,0.015,-0.001351678278297186,-0.00048518102266825736,0.015751393511891365,-0.00720453355461359,-0.0019003236666321754,0.005029588472098112,-1.1836369037628174,-1.1041196584701538,-0.019610239192843437,0.015817977488040924,0.005120725836604834,4.162154709774768e-06,0.00021738663781434298,3.6633431911468506,10.0,0.0,0.0,0.0,0.0,0.0,32.766,32.766,32.766,32.766,32.766,2023.6280517578125,809.5081787109375,29.689788818359375,,False,
1783648059.5590796,2026-07-09T18:47:39,13990,20260709_184731,,,,,,ground_idle,,,,,,,,,False,-0.02058911696076393,-0.022184981033205986,0.9979842901229858,-0.0026095793582499027,-0.5005229711532593,0.045315008610486984,-3.0,-4.0,28.0,15.0,0.015,0.0001585513527970761,-0.00048815179616212845,0.015869265422225,0.001022026059217751,-0.001957942033186555,0.005118220578879118,-1.1836369037628174,-1.1041196584701538,-0.019610239192843437,0.015817977488040924,0.005120725836604834,4.162154709774768e-06,0.00021738663781434298,3.6633431911468506,10.0,0.0,0.0,0.0,0.0,0.0,32.766,32.766,32.766,32.766,32.766,2023.6280517578125,809.5081787109375,29.689788818359375,,False,
1783648059.5692227,2026-07-09T18:47:39,13994,20260709_184731,,,,,,ground_idle,,,,,,,,,False,-0.02058911696076393,-0.022184981033205986,0.9979842901229858,-0.0026095793582499027,-0.5005229711532593,0.045315008610486984,-3.0,-4.0,28.0,15.0,0.015,0.0001585513527970761,-0.00048815179616212845,0.015869265422225,0.001022026059217751,-0.001957942033186555,0.005118220578879118,-1.1831737756729126,-1.1675225496292114,-0.02166832610964775,0.015817977488040924,0.005120725836604834,4.162154709774768e-06,0.00021738663781434298,3.6633431911468506,10.0,0.0,0.0,0.0,0.0,0.0,32.766,32.766,32.766,32.766,32.766,2023.6280517578125,809.5081787109375,29.689788818359375,,False,
1783648059.5793645,2026-07-09T18:47:39,13999,20260709_184731,,,,,,ground_idle,,,,,,,,,False,-0.018729137256741524,-0.021413711830973625,0.9989930987358093,-0.13539455831050873,-0.1351674199104309,0.2535674273967743,3.0,3.0,27.0,15.0,0.015,0.0001585513527970761,-0.00048815179616212845,0.015869265422225,0.001022026059217751,-0.001957942033186555,0.005118220578879118,-1.1831737756729126,-1.1675225496292114,-0.02166832610964775,0.015817977488040924,0.005120725836604834,4.162154709774768e-06,0.00021738663781434298,3.6633431911468506,10.0,0.0,0.0,0.0,0.0,0.0,32.766,32.766,32.766,32.766,32.766,2023.6280517578125,809.5081787109375,29.689788818359375,,False,
1783648059.5895073,2026-07-09T18:47:39,14029,20260709_184731,,,,,,ground_idle,,,,,,,,,False,-0.021926308050751686,-0.023300308734178543,0.9998894333839417,-0.034783735871315,0.21706773340702057,0.09109749644994736,-1.0,7.0,42.0,15.0,0.015,-0.0004845059593208134,-0.0004913154989480972,0.015569427981972694,-0.0020854633767157793,-0.0019152427557855844,0.0031452870462089777,-1.184301733970642,-1.1369664669036865,-0.01956399902701378,0.015817977488040924,0.005120725836604834,4.162154709774768e-06,0.00021738663781434298,3.6633431911468506,10.0,0.0,0.0,0.0,0.0,0.0,32.766,32.766,32.766,32.766,32.766,2023.6280517578125,809.5081787109375,29.689788818359375,,False,
1783648059.5996509,2026-07-09T18:47:39,14034,20260709_184731,,,,,,ground_idle,,,,,,,,,False,-0.021926308050751686,-0.023300308734178543,0.9998894333839417,-0.034783735871315,0.21706773340702057,0.09109749644994736,-1.0,7.0,42.0,15.0,0.015,-0.0013317213160917163,-0.000485240132547915,0.015644637867808342,-0.006427522748708725,-0.0020930238533765078,0.0032228899654000998,-1.184301733970642,-1.1369664669036865,-0.01956399902701378,0.015834329649806023,0.00399921415373683,2.7441112706583226e-06,0.0001690341014182195,3.6633431911468506,10.0,0.0,0.0,0.0,0.0,0.0,32.766,32.766,32.766,32.766,32.766,2023.6280517578125,809.5081787109375,29.689788818359375,,False,
1783648059.6097953,2026-07-09T18:47:39,14034,20260709_184731,,,,,,ground_idle,,,,,,,,,False,-0.021926308050751686,-0.023300308734178543,0.9998894333839417,-0.034783735871315,0.21706773340702057,0.09109749644994736,-1.0,7.0,42.0,15.0,0.015,-0.0013317213160917163,-0.000485240132547915,0.015644637867808342,-0.006427522748708725,-0.0020930238533765078,0.0032228899654000998,-1.184301733970642,-1.1369664669036865,-0.01956399902701378,0.015834329649806023,0.00399921415373683,2.7441112706583226e-06,0.0001690341014182195,3.6633431911468506,10.0,0.0,0.0,0.0,0.0,0.0,32.766,32.766,32.766,32.766,32.766,2023.6280517578125,809.5081787109375,29.689788818359375,,False,
1783648059.619931,2026-07-09T18:47:39,14042,20260709_184731,,,,,,ground_idle,,,,,,,,,False,-0.02157142572104931,-0.023637382313609123,0.9994145631790161,0.03696979209780693,-0.14485596120357513,0.10274776816368103,0.0,-7.0,24.0,16.0,0.016,-0.0013317213160917163,-0.000485240132547915,0.015644637867808342,-0.006427522748708725,-0.0020930238533765078,0.0032228899654000998,-1.1854652166366577,-1.1006003618240356,-0.019795013591647148,0.015834329649806023,0.00399921415373683,2.7441112706583226e-06,0.0001690341014182195,3.6633431911468506,10.0,0.0,0.0,0.0,0.0,0.0,32.766,32.766,32.766,32.766,32.766,2023.6280517578125,809.5081787109375,29.689788818359375,,False,
1783648059.6300774,2026-07-09T18:47:39,14059,20260709_184731,,,,,,ground_idle,,,,,,,,,False,-0.021761564537882805,-0.02206888422369957,0.9993584752082825,-0.20633408427238464,0.023233603686094284,-0.11616688221693039,0.0,0.0,48.0,16.0,0.016,-0.00025721045676618814,-0.00048355196486227214,0.01587693579494953,-0.0009135010768659413,-0.0023765158839523792,0.004031174350529909,-1.185027837753296,-1.1474645137786865,-0.020913289859890938,0.015834329649806023,0.00399921415373683,2.7441112706583226e-06,0.0001690341014182195,3.6633431911468506,10.0,0.0,0.0,0.0,0.0,0.0,32.766,32.766,32.766,32.766,32.766,2023.556884765625,809.5148315429688,29.697038650512695,,False,
1783648059.6402643,2026-07-09T18:47:39,14079,20260709_184731,,,,,,ground_idle,,,,,,,,,False,-0.020036954432725906,-0.02142612636089325,1.0002319812774658,0.0590798482298851,0.003236901480704546,-0.14932183921337128,0.0,1.0,46.0,16.0,0.016,-0.00027751398738473654,-0.000534924678504467,0.01595831662416458,-0.0011923372512683272,-0.002758330199867487,0.004116992931813002,-1.1822214126586914,-1.1467500925064087,-0.020007001236081123,0.015834329649806023,0.00399921415373683,2.7441112706583226e-06,0.0001690341014182195,3.6633431911468506,10.0,0.0,0.0,0.0,0.0,0.0,32.766,32.766,32.766,32.766,32.766,2023.556884765625,809.5148315429688,29.697038650512695,,False,
1783648059.6504226,2026-07-09T18:47:39,14089,20260709_184731,,,,,,ground_idle,,,,,,,,,False,-0.020445091649889946,-0.021011685952544212,0.9999600052833557,0.062159907072782516,0.36078354716300964,0.0847250297665596,-4.0,-4.0,25.0,16.0,0.016,-0.00027751398738473654,-0.000534924678504467,0.01595831662416458,-0.0011923372512683272,-0.002758330199867487,0.004116992931813002,-1.1822214126586914,-1.1467500925064087,-0.020007001236081123,0.016004221513867378,0.004351762589067221,4.2196688809781335e-06,0.0002180333249270916,3.6633431911468506,10.0,0.0,0.0,0.0,0.0,0.0,32.766,32.766,32.766,32.766,32.766,2023.556884765625,809.5148315429688,29.697038650512695,,False,
1783648059.6605701,2026-07-09T18:47:39,14090,20260709_184731,,,,,,ground_idle,,,,,,,,,False,-0.020445091649889946,-0.021011685952544212,0.9999600052833557,0.062159907072782516,0.36078354716300964,0.0847250297665596,-4.0,-4.0,25.0,16.0,0.016,0.0004294340033084154,0.00039935336099006236,0.01604701764881611,0.002564989496022463,0.0020852775778621435,0.004301345441490412,-1.1822214126586914,-1.1467500925064087,-0.020007001236081123,0.016004221513867378,0.004351762589067221,4.2196688809781335e-06,0.0002180333249270916,3.6633431911468506,10.0,0.0,0.0,0.0,0.0,0.0,32.766,32.766,32.766,32.766,32.766,2023.556884765625,809.5148315429688,29.697038650512695,,False,
1783648059.6707263,2026-07-09T18:47:39,14094,20260709_184731,,,,,,ground_idle,,,,,,,,,False,-0.020445091649889946,-0.021011685952544212,0.9999600052833557,0.062159907072782516,0.36078354716300964,0.0847250297665596,-4.0,-4.0,25.0,16.0,0.016,0.0004294340033084154,0.00039935336099006236,0.01604701764881611,0.002564989496022463,0.0020852775778621435,0.004301345441490412,-1.2184903621673584,-1.174784779548645,-0.02009012922644615,0.016004221513867378,0.004351762589067221,4.2196688809781335e-06,0.0002180333249270916,3.6633431911468506,10.0,0.0,0.0,0.0,0.0,0.0,32.766,32.766,32.766,32.766,32.766,2023.556884765625,809.5148315429688,29.697038650512695,,False,
1783648059.6808693,2026-07-09T18:47:39,14109,20260709_184731,,,,,,ground_idle,,,,,,,,,False,-0.02026698924601078,-0.021515384316444397,0.9977530837059021,0.08931466937065125,-0.07608206570148468,-0.22305205464363098,-3.0,4.0,41.0,18.0,0.018,0.0004294340033084154,0.00039935336099006236,0.01604701764881611,0.002564989496022463,0.0020852775778621435,0.004301345441490412,-1.2184903621673584,-1.174784779548645,-0.02009012922644615,0.016004221513867378,0.004351762589067221,4.2196688809781335e-06,0.0002180333249270916,3.6633431911468506,10.0,0.0,0.0,0.0,0.0,0.0,32.766,32.766,32.766,32.766,32.766,2023.556884765625,809.5148315429688,29.697038650512695,,False,
1783648059.6910212,2026-07-09T18:47:39,14130,20260709_184731,,,,,,ground_idle,,,,,,,,,False,-0.02134973369538784,-0.02190014161169529,1.0016807317733765,0.029982849955558777,-0.03431123122572899,-0.09887279570102692,-1.0,1.0,44.0,18.0,0.018,-0.0013874215073883533,-0.0002664302592165768,0.017256511375308037,-0.0068239676766097546,-0.0013582265237346292,0.008909491822123528,-1.1823664903640747,-1.096070647239685,-0.016581008210778236,0.016004221513867378,0.004351762589067221,4.2196688809781335e-06,0.0002180333249270916,3.6633431911468506,10.0,0.0,0.0,0.0,0.0,0.0,32.766,32.766,32.766,32.766,32.766,2023.556884765625,809.5148315429688,29.697038650512695,,False,
1783648059.701171,2026-07-09T18:47:39,14134,20260709_184731,,,,,,ground_idle,,,,,,,,,False,-0.02134973369538784,-0.02190014161169529,1.0016807317733765,0.029982849955558777,-0.03431123122572899,-0.09887279570102692,-1.0,1.0,44.0,18.0,0.018,-0.0013874215073883533,-0.0002664302592165768,0.017256511375308037,-0.0068239676766097546,-0.0013582265237346292,0.008909491822123528,-1.1823664903640747,-1.096070647239685,-0.016581008210778236,0.017255360260605812,0.008688370697200298,4.096208613191266e-06,0.00021270087745506316,3.6633431911468506,10.0,0.0,0.0,0.0,0.0,0.0,32.766,32.766,32.766,32.766,32.766,2023.556884765625,809.5148315429688,29.697038650512695,,False,
1783648059.7113254,2026-07-09T18:47:39,14134,20260709_184731,,,,,,ground_idle,,,,,,,,,False,-0.02134973369538784,-0.02190014161169529,1.0016807317733765,0.029982849955558777,-0.03431123122572899,-0.09887279570102692,-1.0,1.0,44.0,18.0,0.018,-0.0013874215073883533,-0.0002664302592165768,0.017256511375308037,-0.0068239676766097546,-0.0013582265237346292,0.008909491822123528,-1.1823664903640747,-1.096070647239685,-0.016581008210778236,0.017255360260605812,0.008688370697200298,4.096208613191266e-06,0.00021270087745506316,3.6633431911468506,10.0,0.0,0.0,0.0,0.0,0.0,32.766,32.766,32.766,32.766,32.766,2023.556884765625,809.5148315429688,29.697038650512695,,False,
1783648059.7214627,2026-07-09T18:47:39,14149,20260709_184731,,,,,,ground_idle,,,,,,,,,False,-0.02048375830054283,-0.02316809631884098,1.0009057521820068,0.058710794895887375,0.12879647314548492,-0.09881408512592316,0.0,-8.0,38.0,14.0,0.014,-0.0013874215073883533,-0.0002664302592165768,0.017256511375308037,-0.0068239676766097546,-0.0013582265237346292,0.008909491822123528,-1.1900215148925781,-1.102054476737976,-0.01689230650663376,0.017255360260605812,0.008688370697200298,4.096208613191266e-06,0.00021270087745506316,3.6633431911468506,10.0,0.0,0.0,0.0,0.0,0.0,32.766,32.766,32.766,32.766,32.766,2023.556884765625,809.5148315429688,29.697038650512695,,False,
1783648059.7316227,2026-07-09T18:47:39,14170,20260709_184731,,,,,,ground_idle,,,,,,,,,False,-0.021433502435684204,-0.016965435817837715,1.0005284547805786,-0.12558604776859283,-0.3374292254447937,-0.12543007731437683,-2.0,0.0,44.0,14.0,0.014,-0.000500286987517029,-0.0007353128166869283,0.01601039618253708,-0.0018848356558009982,-0.0033486506436020136,0.0017341040074825287,-1.1691659688949585,-1.1693931818008423,-0.019223446026444435,0.017255360260605812,0.008688370697200298,4.096208613191266e-06,0.00021270087745506316,3.6633431911468506,10.0,0.0,0.0,0.0,0.0,0.0,32.766,32.766,32.766,32.766,32.766,2023.584228515625,809.5122680664062,29.699180603027344,,False,
1783648059.7419372,2026-07-09T18:47:39,14184,20260709_184731,,,,,,ground_idle,,,,,,,,,False,-0.021971603855490685,-0.01901012286543846,1.0010946989059448,-0.13986755907535553,0.29312780499458313,-0.18105360865592957,0.0,-3.0,48.0,14.0,0.014,-0.000500286987517029,-0.0007353128166869283,0.01601039618253708,-0.0018848356558009982,-0.0033486506436020136,0.0017341040074825287,-1.1723301410675049,-1.139474630355835,-0.017532754689455032,0.016031455248594284,0.0017978140385821462,4.018710569653194e-06,0.00021073484094813466,3.6633431911468506,10.0,0.0,0.0,0.0,0.0,0.0,32.766,32.766,32.766,32.766,32.766,2023.584228515625,809.5122680664062,29.699180603027344,,False,
1783648059.7521262,2026-07-09T18:47:39,14189,20260709_184731,,,,,,ground_idle,,,,,,,,,False,-0.019718939438462257,-0.02223077602684498,0.9986324310302734,0.02563033625483513,-0.10881131142377853,0.02603425830602646,0.0,2.0,31.0,14.0,0.014,-0.000500286987517029,-0.0007353128166869283,0.01601039618253708,-0.0018848356558009982,-0.0033486506436020136,0.0017341040074825287,-1.1723301410675049,-1.139474630355835,-0.017532754689455032,0.016031455248594284,0.0017978140385821462,4.018710569653194e-06,0.00021073484094813466,3.6633431911468506,10.0,0.0,0.0,0.0,0.0,0.0,32.766,32.766,32.766,32.766,32.766,2023.584228515625,809.5122680664062,29.699180603027344,,False,
1783648059.7623053,2026-07-09T18:47:39,14189,20260709_184731,,,,,,ground_idle,,,,,,,,,False,-0.019718939438462257,-0.02223077602684498,0.9986324310302734,0.02563033625483513,-0.10881131142377853,0.02603425830602646,0.0,2.0,31.0,14.0,0.014,-0.000500286987517029,-0.0007353128166869283,0.01601039618253708,-0.0018848356558009982,-0.0033486506436020136,0.0017341040074825287,-1.1723301410675049,-1.139474630355835,-0.017532754689455032,0.016031455248594284,0.0017978140385821462,4.018710569653194e-06,0.00021073484094813466,3.6633431911468506,10.0,0.0,0.0,0.0,0.0,0.0,32.766,32.766,32.766,32.766,32.766,2023.584228515625,809.5122680664062,29.699180603027344,,False,
1783648059.772455,2026-07-09T18:47:39,14192,20260709_184731,,,,,,ground_idle,,,,,,,,,False,-0.019718939438462257,-0.02223077602684498,0.9986324310302734,0.02563033625483513,-0.10881131142377853,0.02603425830602646,0.0,2.0,31.0,14.0,0.014,-0.00028584961546584964,-0.0007245916058309376,0.016050517559051514,-0.0010323503520339727,-0.0025761271826922894,0.0019418897572904825,-1.1723301410675049,-1.139474630355835,-0.017532754689455032,0.016031455248594284,0.0017978140385821462,4.018710569653194e-06,0.00021073484094813466,3.6633431911468506,10.0,0.0,0.0,0.0,0.0,0.0,32.766,32.766,32.766,32.766,32.766,2023.584228515625,809.5122680664062,29.699180603027344,,False,
1783648059.7826126,2026-07-09T18:47:39,14209,20260709_184731,,,,,,ground_idle,,,,,,,,,False,-0.021308166906237602,-0.02077185921370983,0.9982264041900635,-0.18212108314037323,-0.06054629758000374,-0.1539078950881958,-3.0,3.0,42.0,15.0,0.015,-0.00028584961546584964,-0.0007245916058309376,0.016050517559051514,-0.0010323503520339727,-0.0025761271826922894,0.0019418897572904825,-1.1752700805664062,-1.1426352262496948,-0.01868203468620777,0.016031455248594284,0.0017978140385821462,4.018710569653194e-06,0.00021073484094813466,3.6633431911468506,10.0,0.0,0.0,0.0,0.0,0.0,32.766,32.766,32.766,32.766,32.766,2023.584228515625,809.5122680664062,29.699180603027344,,False,
1783648059.7927556,2026-07-09T18:47:39,14230,20260709_184731,,,,,,ground_idle,,,,,,,,,False,-0.021297039464116096,-0.021010715514421463,1.0014537572860718,0.005565917119383812,-0.051231883466243744,0.004634371958673,3.0,0.0,42.0,15.0,0.015,-0.000528969569131732,-0.00028062277124263346,0.015604611486196518,-0.002607326488941908,-0.00044234987581148744,-0.0002706042432691902,-1.21244478225708,-1.12684166431427,-0.018174566328525543,0.016031455248594284,0.0017978140385821462,4.018710569653194e-06,0.00021073484094813466,3.6633431911468506,10.0,0.0,0.0,0.0,0.0,0.0,32.766,32.766,32.766,32.766,32.766,2023.584228515625,809.5122680664062,29.699180603027344,,False,
1783648059.802904,2026-07-09T18:47:39,14234,20260709_184731,,,,,,ground_idle,,,,,,,,,False,-0.021297039464116096,-0.021010715514421463,1.0014537572860718,0.005565917119383812,-0.051231883466243744,0.004634371958673,3.0,0.0,42.0,15.0,0.015,-0.000528969569131732,-0.00028062277124263346,0.015604611486196518,-0.002607326488941908,-0.00044234987581148744,-0.0002706042432691902,-1.21244478225708,-1.12684166431427,-0.018174566328525543,0.015766220167279243,0.0005083654541522264,2.7050132302974816e-06,0.00016829466039780527,3.6633431911468506,10.0,0.0,0.0,0.0,0.0,0.0,32.766,32.766,32.766,32.766,32.766,2023.584228515625,809.5122680664062,29.699180603027344,,False,
1783648059.8130467,2026-07-09T18:47:39,14234,20260709_184731,,,,,,ground_idle,,,,,,,,,False,-0.021297039464116096,-0.021010715514421463,1.0014537572860718,0.005565917119383812,-0.051231883466243744,0.004634371958673,3.0,0.0,42.0,15.0,0.015,-0.000528969569131732,-0.00028062277124263346,0.015604611486196518,-0.002607326488941908,-0.00044234987581148744,-0.0002706042432691902,-1.21244478225708,-1.12684166431427,-0.018174566328525543,0.015766220167279243,0.0005083654541522264,2.7050132302974816e-06,0.00016829466039780527,3.6633431911468506,10.0,0.0,0.0,0.0,0.0,0.0,32.766,32.766,32.766,32.766,32.766,2023.584228515625,809.5122680664062,29.699180603027344,,False,
1783648059.8231797,2026-07-09T18:47:39,14250,20260709_184731,,,,,,ground_idle,,,,,,,,,False,-0.01974235288798809,-0.02396257035434246,0.9998155832290649,-0.1570303589105606,-0.08529272675514221,0.09017057716846466,-4.0,5.0,38.0,16.0,0.016,-0.0016164572443813086,-0.0005020176176913083,0.01577799767255783,-0.008322580717504025,-0.0015384192811325192,0.0007469209376722574,-1.1897553205490112,-1.12123703956604,-0.019513297826051712,0.015766220167279243,0.0005083654541522264,2.7050132302974816e-06,0.00016829466039780527,3.6633431911468506,10.0,0.0,0.0,0.0,0.0,0.0,32.766,32.766,32.766,32.766,32.766,2023.584228515625,809.5122680664062,29.699180603027344,,False,
1783648059.8333187,2026-07-09T18:47:39,14270,20260709_184731,,,,,,ground_idle,,,,,,,,,False,-0.020381100475788116,-0.021851589903235435,1.0014857053756714,0.0851476639509201,-0.1942925602197647,0.010659398511052132,1.0,0.0,40.0,16.0,0.016,0.0001362382317893207,-0.0007193448254838586,0.015813834965229034,0.0009274746989831328,-0.002992371330037713,0.0007610885659232736,-1.1801830530166626,-1.075693130493164,-0.01792127825319767,0.015766220167279243,0.0005083654541522264,2.7050132302974816e-06,0.00016829466039780527,3.6633431911468506,10.0,0.0,0.0,0.0,0.0,0.0,32.766,32.766,32.766,32.766,32.766,2023.5787353515625,809.5128784179688,29.70558738708496,,False,
1783648059.8434668,2026-07-09T18:47:39,14284,20260709_184731,,,,,,ground_idle,,,,,,,,,False,-0.02347492054104805,-0.020221181213855743,1.0016049146652222,-0.1375427544116974,-0.348815381526947,0.05846333131194115,-1.0,0.0,47.0,16.0,0.016,0.0001362382317893207,-0.0007193448254838586,0.015813834965229034,0.0009274746989831328,-0.002992371330037713,0.0007610885659232736,-1.1696802377700806,-1.1530252695083618,-0.019776495173573494,0.01582898199558258,0.0008193048997782171,4.162131517659873e-06,0.00021728643332608044,3.6633431911468506,10.0,0.0,0.0,0.0,0.0,0.0,32.766,32.766,32.766,32.766,32.766,2023.5787353515625,809.5128784179688,29.70558738708496,,False,
1783648059.853621,2026-07-09T18:47:39,14289,20260709_184731,,,,,,ground_idle,,,,,,,,,False,-0.022838640958070755,-0.02278774231672287,0.9976720809936523,0.07145887613296509,0.1512729376554489,0.05645142123103142,4.0,5.0,28.0,16.0,0.016,0.0001362382317893207,-0.0007193448254838586,0.015813834965229034,0.0009274746989831328,-0.002992371330037713,0.0007610885659232736,-1.1696802377700806,-1.1530252695083618,-0.019776495173573494,0.01582898199558258,0.0008193048997782171,4.162131517659873e-06,0.00021728643332608044,3.6633431911468506,10.0,0.0,0.0,0.0,0.0,0.0,32.766,32.766,32.766,32.766,32.766,2023.5787353515625,809.5128784179688,29.70558738708496,,False,
1783648059.8637712,2026-07-09T18:47:39,14289,20260709_184731,,,,,,ground_idle,,,,,,,,,False,-0.022838640958070755,-0.02278774231672287,0.9976720809936523,0.07145887613296509,0.1512729376554489,0.05645142123103142,4.0,5.0,28.0,16.0,0.016,0.0001362382317893207,-0.0007193448254838586,0.015813834965229034,0.0009274746989831328,-0.002992371330037713,0.0007610885659232736,-1.1696802377700806,-1.1530252695083618,-0.019776495173573494,0.01582898199558258,0.0008193048997782171,4.162131517659873e-06,0.00021728643332608044,3.6633431911468506,10.0,0.0,0.0,0.0,0.0,0.0,32.766,32.766,32.766,32.766,32.766,2023.5787353515625,809.5128784179688,29.70558738708496,,False,
1783648059.8739204,2026-07-09T18:47:39,14292,20260709_184731,,,,,,ground_idle,,,,,,,,,False,-0.022838640958070755,-0.02278774231672287,0.9976720809936523,0.07145887613296509,0.1512729376554489,0.05645142123103142,4.0,5.0,28.0,16.0,0.016,-0.000945055449847132,-0.0013636534567922354,0.015839433297514915,-0.005218002013862133,-0.006206656340509653,0.0010556834749877453,-1.1696802377700806,-1.1530252695083618,-0.019776495173573494,0.01582898199558258,0.0008193048997782171,4.162131517659873e-06,0.00021728643332608044,3.6633431911468506,10.0,0.0,0.0,0.0,0.0,0.0,32.766,32.766,32.766,32.766,32.766,2023.5787353515625,809.5128784179688,29.70558738708496,,False,
1783648059.8840835,2026-07-09T18:47:39,14310,20260709_184731,,,,,,ground_idle,,,,,,,,,False,-0.018966276198625565,-0.021697567775845528,1.0005640983581543,-0.08685861527919769,-0.19540324807167053,0.19980521500110626,1.0,-3.0,46.0,15.0,0.015,0.00011848065332742408,-0.0007248183246701956,0.015473254024982452,0.0004682889557443559,-0.0028813134413212538,-0.001084921765141189,-1.1433115005493164,-1.1019493341445923,-0.019566304981708527,0.01582898199558258,0.0008193048997782171,4.162131517659873e-06,0.00021728643332608044,3.6633431911468506,10.0,0.0,0.0,0.0,0.0,0.0,32.766,32.766,32.766,32.766,32.766,2023.5787353515625,809.5128784179688,29.70558738708496,,False,
1783648059.8942316,2026-07-09T18:47:39,14330,20260709_184731,,,,,,ground_idle,,,,,,,,,False,-0.021351683884859085,-0.021057257428765297,0.9981958866119385,-0.03197384253144264,0.08380220830440521,0.1769987940788269,3.0,0.0,42.0,15.0,0.015,-0.0005217360449023545,-0.001150456489995122,0.015456470660865307,-0.00280056893825531,-0.005191570147871971,-0.0010124347172677517,-1.1701987981796265,-1.1485600471496582,-0.020096292719244957,0.01582898199558258,0.0008193048997782171,4.162131517659873e-06,0.00021728643332608044,3.6633431911468506,10.0,0.0,0.0,0.0,0.0,0.0,32.766,32.766,32.766,32.766,32.766,2023.5787353515625,809.5128784179688,29.70558738708496,,False,
1783648059.904404,2026-07-09T18:47:39,14334,20260709_184731,,,,,,ground_idle,,,,,,,,,False,-0.021351683884859085,-0.021057257428765297,0.9981958866119385,-0.03197384253144264,0.08380220830440521,0.1769987940788269,3.0,0.0,42.0,15.0,0.015,-0.0005217360449023545,-0.001150456489995122,0.015456470660865307,-0.00280056893825531,-0.005191570147871971,-0.0010124347172677517,-1.1701987981796265,-1.1485600471496582,-0.020096292719244957,0.016089173033833504,0.0020095165818929672,2.7438727556727827e-06,0.00016898296598810703,3.6633431911468506,10.0,0.0,0.0,0.0,0.0,0.0,32.766,32.766,32.766,32.766,32.766,2023.5787353515625,809.5128784179688,29.70558738708496,,False,
1783648059.9145644,2026-07-09T18:47:39,14337,20260709_184731,,,,,,ground_idle,,,,,,,,,False,-0.020710306242108345,-0.023766515776515007,0.997875452041626,0.2161470353603363,0.08166338503360748,-0.1402386575937271,3.0,0.0,42.0,15.0,0.015,-0.0005217360449023545,-0.001150456489995122,0.015456470660865307,-0.00280056893825531,-0.005191570147871971,-0.0010124347172677517,-1.152970790863037,-1.1180912256240845,-0.019563334062695503,0.016089173033833504,0.0020095165818929672,2.7438727556727827e-06,0.00016898296598810703,3.6633431911468506,10.0,0.0,0.0,0.0,0.0,0.0,32.766,32.766,32.766,32.766,32.766,2023.5787353515625,809.5128784179688,29.70558738708496,,False,
1783648059.9247212,2026-07-09T18:47:39,14354,20260709_184731,,,,,,ground_idle,,,,,,,,,False,-0.02282043732702732,-0.02356072887778282,0.9983400702476501,-0.07256955653429031,0.1923539638519287,0.24128061532974243,3.0,4.0,43.0,17.0,0.017,-0.0007065052050165832,-0.0013438764726743102,0.016111455857753754,-0.003954511601477861,-0.006298932712525129,0.0019520706264302135,-1.152970790863037,-1.1180912256240845,-0.019563334062695503,0.016089173033833504,0.0020095165818929672,2.7438727556727827e-06,0.00016898296598810703,3.6633431911468506,10.0,0.0,0.0,0.0,0.0,0.0,32.766,32.766,32.766,32.766,32.766,2023.5787353515625,809.5128784179688,29.70558738708496,,False,
1783648059.9348927,2026-07-09T18:47:39,14374,20260709_184731,,,,,,ground_idle,,,,,,,,,False,-0.019393084570765495,-0.021474748849868774,1.0009874105453491,-0.025124603882431984,-0.06377535313367844,-0.10116364806890488,-1.0,0.0,46.0,17.0,0.017,-0.000711327709723264,-0.0004890998243354261,0.01615653559565544,-0.003934294916689396,-0.001727868802845478,0.0020667347125709057,-1.1839208602905273,-1.1106077432632446,-0.01735822856426239,0.016089173033833504,0.0020095165818929672,2.7438727556727827e-06,0.00016898296598810703,3.6633431911468506,10.0,0.0,0.0,0.0,0.0,0.0,32.766,32.766,32.766,32.766,32.766,2023.6224365234375,809.5086669921875,29.709449768066406,,False,
1783648059.945132,2026-07-09T18:47:39,14384,20260709_184731,,,,,,ground_idle,,,,,,,,,False,-0.02007514052093029,-0.022532284259796143,0.9989053010940552,0.07497107982635498,-0.15204495191574097,-0.13077490031719208,1.0,-4.0,45.0,17.0,0.017,-0.000711327709723264,-0.0004890998243354261,0.01615653559565544,-0.003934294916689396,-0.001727868802845478,0.0020667347125709057,-1.1839208602905273,-1.1106077432632446,-0.01735822856426239,0.01619063690304756,0.002000786131247878,4.2190204112557694e-06,0.00021797395311295986,3.6633431911468506,10.0,0.0,0.0,0.0,0.0,0.0,32.766,32.766,32.766,32.766,32.766,2023.6224365234375,809.5086669921875,29.709449768066406,,False,
1783648059.9552932,2026-07-09T18:47:39,14387,20260709_184731,,,,,,ground_idle,,,,,,,,,False,-0.01976364105939865,-0.02113226428627968,0.9994933009147644,-0.07938778400421143,0.20459604263305664,-0.20216140151023865,1.0,-4.0,45.0,17.0,0.017,-0.000711327709723264,-0.0004890998243354261,0.01615653559565544,-0.003934294916689396,-0.001727868802845478,0.0020667347125709057,-1.1839208602905273,-1.1106077432632446,-0.01735822856426239,0.01619063690304756,0.002000786131247878,4.2190204112557694e-06,0.00021797395311295986,3.6633431911468506,10.0,0.0,0.0,0.0,0.0,0.0,32.766,32.766,32.766,32.766,32.766,2023.6224365234375,809.5086669921875,29.709449768066406,,False,
1783648059.9654472,2026-07-09T18:47:39,14392,20260709_184731,,,,,,ground_idle,,,,,,,,,False,-0.01976364105939865,-0.02113226428627968,0.9994933009147644,-0.07938778400421143,0.20459604263305664,-0.20216140151023865,-1.0,7.0,27.0,17.0,0.017,-0.0013354022521525621,-0.0004904641536995769,0.01621191017329693,-0.007107117213308811,-0.0017869389848783612,0.0020871965680271387,-1.1839208602905273,-1.1106077432632446,-0.01735822856426239,0.01619063690304756,0.002000786131247878,4.2190204112557694e-06,0.00021797395311295986,3.6633431911468506,10.0,0.0,0.0,0.0,0.0,0.0,32.766,32.766,32.766,32.766,32.766,2023.6224365234375,809.5086669921875,29.709449768066406,,False,
1783648059.9755926,2026-07-09T18:47:39,14404,20260709_184731,,,,,,ground_idle,,,,,,,,,False,-0.0222152229398489,-0.021515751257538795,0.9998947978019714,0.007741163484752178,0.17387118935585022,0.07242675125598907,-1.0,-7.0,29.0,15.0,0.015,-0.0013354022521525621,-0.0004904641536995769,0.01621191017329693,-0.007107117213308811,-0.0017869389848783612,0.0020871965680271387,-1.1831507682800293,-1.0824075937271118,-0.017086641862988472,0.01619063690304756,0.002000786131247878,4.2190204112557694e-06,0.00021797395311295986,3.6633431911468506,10.0,0.0,0.0,0.0,0.0,0.0,32.766,32.766,32.766,32.766,32.766,2023.6224365234375,809.5086669921875,29.709449768066406,,False,
1783648059.985771,2026-07-09T18:47:39,14419,20260709_184731,,,,,,ground_idle,,,,,,,,,False,-0.021289123222231865,-0.02257050946354866,1.000402808189392,0.01774437166750431,0.2559765875339508,0.08363417536020279,-4.0,-1.0,45.0,15.0,0.015,-0.001335900858975947,-0.0007081178482621908,0.015702202916145325,-0.0071445065550506115,-0.0029439146164804697,-0.00045968295307829976,-1.1743643283843994,-1.0869511365890503,-0.017250077798962593,0.01619063690304756,0.002000786131247878,4.2190204112557694e-06,0.00021797395311295986,3.6633431911468506,10.0,0.0,0.0,0.0,0.0,0.0,32.766,32.766,32.766,32.766,32.766,2023.6224365234375,809.5086669921875,29.709449768066406,,False,
1783648059.9960697,2026-07-09T18:47:39,14434,20260709_184731,,,,,,ground_idle,,,,,,,,,False,-0.021535467356443405,-0.020411644130945206,1.0001816749572754,0.007981890812516212,-0.28006914258003235,-0.056382082402706146,4.0,-6.0,45.0,15.0,0.015,0.0001333699910901487,-0.0007137185893952847,0.01571665145456791,0.000897852994967252,-0.0032235863618552685,-0.00017463252879679203,-1.1743643283843994,-1.0869511365890503,-0.017250077798962593,0.01571764051914215,-0.00030689992127008736,4.095684744243044e-06,0.0002126726321876049,3.6633431911468506,10.0,0.0,0.0,0.0,0.0,0.0,32.766,32.766,32.766,32.766,32.766,2023.6224365234375,809.5086669921875,29.709449768066406,,False,
1783648060.0062697,2026-07-09T18:47:40,14437,20260709_184731,,,,,,ground_idle,,,,,,,,,False,-0.021139759570360184,-0.02108602412045002,1.0042009353637695,-0.20962324738502502,0.31797218322753906,-0.13432013988494873,4.0,-6.0,45.0,15.0,0.015,0.0001333699910901487,-0.0007137185893952847,0.01571665145456791,0.000897852994967252,-0.0032235863618552685,-0.00017463252879679203,-1.1726875305175781,-1.1518579721450806,-0.018173234537243843,0.01571764051914215,-0.00030689992127008736,4.095684744243044e-06,0.0002126726321876049,3.6633431911468506,10.0,0.0,0.0,0.0,0.0,0.0,32.766,32.766,32.766,32.766,32.766,2023.6224365234375,809.5086669921875,29.709449768066406,,False,
1783648060.0164273,2026-07-09T18:47:40,14439,20260709_184731,,,,,,ground_idle,,,,,,,,,False,-0.021139759570360184,-0.02108602412045002,1.0042009353637695,-0.20962324738502502,0.31797218322753906,-0.13432013988494873,3.0,2.0,46.0,15.0,0.015,0.0001333699910901487,-0.0007137185893952847,0.01571665145456791,0.000897852994967252,-0.0032235863618552685,-0.00017463252879679203,-1.1726875305175781,-1.1518579721450806,-0.018173234537243843,0.01571764051914215,-0.00030689992127008736,4.095684744243044e-06,0.0002126726321876049,3.6633431911468506,10.0,0.0,0.0,0.0,0.0,0.0,32.766,32.766,32.766,32.766,32.766,2023.6224365234375,809.5086669921875,29.709449768066406,,False,
1783648060.026588,2026-07-09T18:47:40,14458,20260709_184731,,,,,,ground_idle,,,,,,,,,False,-0.0211295485496521,-0.021299583837389946,1.001172661781311,0.022433800622820854,0.11415470391511917,-0.017638642340898514,-4.0,6.0,49.0,15.0,0.015,-0.0015495222760364413,-0.0005059221293777227,0.015408129431307316,-0.008223584853112698,-0.0016508856788277626,-0.00122269825078547,-1.185774326324463,-1.0798187255859375,-0.016026511788368225,0.01571764051914215,-0.00030689992127008736,4.095684744243044e-06,0.0002126726321876049,3.6633431911468506,10.0,0.0,0.0,0.0,0.0,0.0,32.766,32.766,32.766,32.766,32.766,2023.73193359375,809.4993286132812,29.715435028076172,,False,
1783648060.036733,2026-07-09T18:47:40,14477,20260709_184731,,,,,,ground_idle,,,,,,,,,False,-0.02132994495332241,-0.022416848689317703,1.001692295074463,0.002864096313714981,-0.012492758221924305,-0.15812401473522186,-2.0,1.0,43.0,15.0,0.015,-0.0005013156915083528,-0.0007183845154941082,0.015405469574034214,-0.002369300462305546,-0.0024645840749144554,-0.0008274401188828051,-1.175660490989685,-1.1283164024353027,-0.016542134806513786,0.01571764051914215,-0.00030689992127008736,4.095684744243044e-06,0.0002126726321876049,3.6633431911468506,10.0,0.0,0.0,0.0,0.0,0.0,32.766,32.766,32.766,32.766,32.766,2023.73193359375,809.4993286132812,29.715435028076172,,False,
1783648060.0469558,2026-07-09T18:47:40,14489,20260709_184731,,,,,,ground_idle,,,,,,,,,False,-0.019583310931921005,-0.023597490042448044,0.9996539354324341,-0.0009232938755303621,-0.12366561591625214,-0.28971049189567566,4.0,-2.0,30.0,15.0,0.015,-0.0005013156915083528,-0.0007183845154941082,0.015405469574034214,-0.002369300462305546,-0.0024645840749144554,-0.0008274401188828051,-1.175660490989685,-1.1283164024353027,-0.016542134806513786,0.015407422557473183,-0.0008826686535030603,4.0183617784350645e-06,0.00021071899391245097,3.6633431911468506,10.0,0.0,0.0,0.0,0.0,0.0,32.766,32.766,32.766,32.766,32.766,2023.73193359375,809.4993286132812,29.715435028076172,,False,
1783648060.0571325,2026-07-09T18:47:40,14490,20260709_184731,,,,,,ground_idle,,,,,,,,,False,-0.019583310931921005,-0.023597490042448044,0.9996539354324341,-0.0009232938755303621,-0.12366561591625214,-0.28971049189567566,4.0,-2.0,30.0,15.0,0.015,-0.001131437486037612,-0.0011391791049391031,0.015401138924062252,-0.005606099497526884,-0.004784715827554464,-0.000570364820305258,-1.175660490989685,-1.1283164024353027,-0.016542134806513786,0.015407422557473183,-0.0008826686535030603,4.0183617784350645e-06,0.00021071899391245097,3.6633431911468506,10.0,0.0,0.0,0.0,0.0,0.0,32.766,32.766,32.766,32.766,32.766,2023.73193359375,809.4993286132812,29.715435028076172,,False,
1783648060.0672805,2026-07-09T18:47:40,14492,20260709_184731,,,,,,ground_idle,,,,,,,,,False,-0.019583310931921005,-0.023597490042448044,0.9996539354324341,-0.0009232938755303621,-0.12366561591625214,-0.28971049189567566,4.0,-2.0,30.0,15.0,0.015,-0.001131437486037612,-0.0011391791049391031,0.015401138924062252,-0.005606099497526884,-0.004784715827554464,-0.000570364820305258,-1.175660490989685,-1.1283164024353027,-0.016542134806513786,0.015407422557473183,-0.0008826686535030603,4.0183617784350645e-06,0.00021071899391245097,3.6633431911468506,10.0,0.0,0.0,0.0,0.0,0.0,32.766,32.766,32.766,32.766,32.766,2023.73193359375,809.4993286132812,29.715435028076172,,False,
1783648060.0774202,2026-07-09T18:47:40,14510,20260709_184731,,,,,,ground_idle,,,,,,,,,False,-0.023697124794125557,-0.022838808596134186,1.0007277727127075,0.14720377326011658,0.10937411338090897,-0.1819552481174469,-3.0,0.0,46.0,14.0,0.014,-0.0015584955690428615,-0.0005301415221765637,0.014749468304216862,-0.007478843908756971,-0.0016620121896266937,-0.0033566385973244905,-1.157920002937317,-1.10142982006073,-0.017863409593701363,0.015407422557473183,-0.0008826686535030603,4.0183617784350645e-06,0.00021071899391245097,3.6633431911468506,10.0,0.0,0.0,0.0,0.0,0.0,32.766,32.766,1.098,32.766,32.766,2023.73193359375,809.4993286132812,29.715435028076172,,False,
1783648060.087562,2026-07-09T18:47:40,14529,20260709_184731,,,,,,ground_idle,,,,,,,,,False,-0.02153921313583851,-0.0204587671905756,1.0035001039505005,-0.01880631409585476,-0.06035901606082916,0.10243528336286545,2.0,1.0,44.0,14.0,0.014,-0.0015584955690428615,-0.0005301415221765637,0.014749468304216862,-0.007478843908756971,-0.0016620121896266937,-0.0033566385973244905,-1.1868764162063599,-1.087886929512024,-0.01811102032661438,0.015407422557473183,-0.0008826686535030603,4.0183617784350645e-06,0.00021071899391245097,3.6633431911468506,10.0,0.0,0.0,0.0,0.0,0.0,32.766,32.766,1.098,32.766,32.766,2023.73193359375,809.4993286132812,29.715435028076172,,False,
1783648060.097707,2026-07-09T18:47:40,14534,20260709_184731,,,,,,ground_idle,,,,,,,,,False,-0.02153921313583851,-0.0204587671905756,1.0035001039505005,-0.01880631409585476,-0.06035901606082916,0.10243528336286545,2.0,1.0,44.0,14.0,0.014,-0.00010672325151972473,-0.0011628789361566305,0.014703460969030857,0.00012202562356833369,-0.005125091411173344,-0.002909840550273657,-1.1582682132720947,-1.152445673942566,-0.02052694372832775,0.013987855054438114,-0.006084461230784655,2.7049125037592603e-06,0.00016828479419928044,3.6633431911468506,10.0,0.0,0.0,0.0,0.0,0.0,32.766,32.766,1.098,32.766,32.766,2023.73193359375,809.4993286132812,29.715435028076172,,False,
1783648060.1078508,2026-07-09T18:47:40,14542,20260709_184731,,,,,,ground_idle,,,,,,,,,False,-0.02179359458386898,-0.023581571877002716,1.0018764734268188,-0.34740734100341797,-0.1816195845603943,-0.15266841650009155,-6.0,4.0,47.0,13.0,0.013,-0.00010672325151972473,-0.0011628789361566305,0.014703460969030857,0.00012202562356833369,-0.005125091411173344,-0.002909840550273657,-1.1582682132720947,-1.152445673942566,-0.02052694372832775,0.013987855054438114,-0.006084461230784655,2.7049125037592603e-06,0.00016828479419928044,3.668621778488159,10.0,0.0,0.0,0.0,0.0,0.0,32.766,32.766,1.098,32.766,32.766,2023.73193359375,809.4993286132812,29.715435028076172,,False,
1783648060.1179993,2026-07-09T18:47:40,14549,20260709_184731,,,,,,ground_idle,,,,,,,,,False,-0.021322675049304962,-0.022052137181162834,0.9999035000801086,-0.06623034179210663,-0.0205977950245142,0.03503654897212982,4.0,-5.0,44.0,13.0,0.013,-0.00010672325151972473,-0.0011628789361566305,0.014703460969030857,0.00012202562356833369,-0.005125091411173344,-0.002909840550273657,-1.1582682132720947,-1.152445673942566,-0.02052694372832775,0.013987855054438114,-0.006084461230784655,2.7049125037592603e-06,0.00016828479419928044,3.668621778488159,10.0,0.0,0.0,0.0,0.0,0.0,32.766,32.766,1.098,32.766,32.766,2023.73193359375,809.4993286132812,29.715435028076172,,False,
1783648060.1281798,2026-07-09T18:47:40,14558,20260709_184731,,,,,,ground_idle,,,,,,,,,False,-0.02064809389412403,-0.021109603345394135,1.0019910335540771,-0.07883520424365997,0.4841839075088501,-0.05691841244697571,4.0,-5.0,44.0,13.0,0.013,7.856620504753664e-05,-0.0007521864608861506,0.013937252573668957,0.0009789769537746906,-0.003066637087613344,-0.005814270116388798,-1.1767746210098267,-1.159783124923706,-0.019572120159864426,0.013987855054438114,-0.006084461230784655,2.7049125037592603e-06,0.00016828479419928044,3.668621778488159,10.0,0.0,0.0,0.0,0.0,0.0,32.766,32.766,1.098,32.766,32.766,2023.6607666015625,809.5053100585938,29.71841812133789,,False,
1783648060.1383252,2026-07-09T18:47:40,14579,20260709_184731,,,,,,ground_idle,,,,,,,,,False,-0.02015594206750393,-0.021960783749818802,0.9997923374176025,-0.10217881947755814,0.22608481347560883,-0.07410363107919693,3.0,-4.0,43.0,13.0,0.013,-0.0013634079368785024,-0.0005552959046326578,0.013837046921253204,-0.006960101425647736,-0.0017137097893282771,-0.005309985019266605,-1.1868399381637573,-1.100273609161377,-0.016533415764570236,0.013987855054438114,-0.006084461230784655,2.7049125037592603e-06,0.00016828479419928044,3.668621778488159,10.0,0.0,0.0,0.0,0.0,0.0,32.766,32.766,1.098,32.766,32.766,2023.6607666015625,809.5053100585938,29.71841812133789,,False,
1783648060.14848,2026-07-09T18:47:40,14589,20260709_184731,,,,,,ground_idle,,,,,,,,,False,-0.019040146842598915,-0.020316068083047867,0.9990950226783752,0.2473941147327423,0.4081437885761261,0.22613787651062012,1.0,1.0,29.0,13.0,0.013,-0.0013634079368785024,-0.0005552959046326578,0.013837046921253204,-0.006960101425647736,-0.0017137097893282771,-0.005309985019266605,-1.1868399381637573,-1.100273609161377,-0.016533415764570236,0.013794196769595146,-0.00521194189786911,4.162006007391028e-06,0.00021727560670115054,3.668621778488159,10.0,0.0,0.0,0.0,0.0,0.0,32.766,32.766,1.098,32.766,32.766,2023.6607666015625,809.5053100585938,29.71841812133789,,False,
1783648060.1586506,2026-07-09T18:47:40,14597,20260709_184731,,,,,,ground_idle,,,,,,,,,False,-0.02092762663960457,-0.0204513818025589,0.9991121888160706,-0.15747976303100586,-0.23350383341312408,0.05715680867433548,1.0,1.0,29.0,13.0,0.013,-0.0007405350916087627,-0.0013926898827776313,0.013743709772825241,-0.0033243056386709213,-0.006052316632121801,-0.005065962206572294,-1.1510205268859863,-1.1307016611099243,-0.018418721854686737,0.013794196769595146,-0.00521194189786911,4.162006007391028e-06,0.00021727560670115054,3.6633431911468506,10.0,0.0,0.0,0.0,0.0,0.0,32.766,32.766,1.098,32.766,32.766,2023.6607666015625,809.5053100585938,29.71841812133789,,False,
1783648060.168802,2026-07-09T18:47:40,14599,20260709_184731,,,,,,ground_idle,,,,,,,,,False,-0.02092762663960457,-0.0204513818025589,0.9991121888160706,-0.15747976303100586,-0.23350383341312408,0.05715680867433548,-2.0,4.0,26.0,14.0,0.014,-0.0007405350916087627,-0.0013926898827776313,0.013743709772825241,-0.0033243056386709213,-0.006052316632121801,-0.005065962206572294,-1.1510205268859863,-1.1307016611099243,-0.018418721854686737,0.013794196769595146,-0.00521194189786911,4.162006007391028e-06,0.00021727560670115054,3.6633431911468506,10.0,0.0,0.0,0.0,0.0,0.0,32.766,32.766,1.098,32.766,32.766,2023.6607666015625,809.5053100585938,29.71841812133789,,False,
1783648060.1789737,2026-07-09T18:47:40,14617,20260709_184731,,,,,,ground_idle,,,,,,,,,False,-0.02155350334942341,-0.021325070410966873,0.9995120167732239,-0.009207259863615036,0.021204018965363503,0.26701250672340393,1.0,-6.0,46.0,14.0,0.014,-0.00031543406657874584,-0.0011844475520774722,0.013775046914815903,-0.0006385584129020572,-0.004483536817133427,-0.004522313363850117,-1.1623269319534302,-1.155190110206604,-0.018125636503100395,0.013794196769595146,-0.00521194189786911,4.162006007391028e-06,0.00021727560670115054,3.6633431911468506,10.0,0.0,0.0,0.0,0.0,0.0,32.766,32.766,32.766,32.766,32.766,2023.6607666015625,809.5053100585938,29.71841812133789,,False,
1783648060.1891208,2026-07-09T18:47:40,14630,20260709_184731,,,,,,ground_idle,,,,,,,,,False,-0.02358824759721756,-0.021523207426071167,1.0006005764007568,-0.18023335933685303,-0.2680368721485138,-0.07358552515506744,3.0,0.0,47.0,14.0,0.014,-0.0005334849702194333,-0.00035727728391066194,0.013699095696210861,-0.0020508666057139635,-3.6582878237823024e-05,-0.004518742207437754,-1.1623269319534302,-1.155190110206604,-0.018125636503100395,0.013794196769595146,-0.00521194189786911,4.162006007391028e-06,0.00021727560670115054,3.6633431911468506,10.0,0.0,0.0,0.0,0.0,0.0,32.766,32.766,32.766,32.766,32.766,2023.6607666015625,809.5053100585938,29.71841812133789,,False,
1783648060.1992655,2026-07-09T18:47:40,14630,20260709_184731,,,,,,ground_idle,,,,,,,,,False,-0.02358824759721756,-0.021523207426071167,1.0006005764007568,-0.18023335933685303,-0.2680368721485138,-0.07358552515506744,3.0,0.0,47.0,14.0,0.014,-0.0005334849702194333,-0.00035727728391066194,0.013699095696210861,-0.0020508666057139635,-3.6582878237823024e-05,-0.004518742207437754,-1.1623269319534302,-1.155190110206604,-0.018125636503100395,0.013794196769595146,-0.00521194189786911,4.162006007391028e-06,0.00021727560670115054,3.6633431911468506,10.0,0.0,0.0,0.0,0.0,0.0,32.766,32.766,32.766,32.766,32.766,2023.6607666015625,809.5053100585938,29.71841812133789,,False,
1783648060.209408,2026-07-09T18:47:40,14630,20260709_184731,,,,,,ground_idle,,,,,,,,,False,-0.02358824759721756,-0.021523207426071167,1.0006005764007568,-0.18023335933685303,-0.2680368721485138,-0.07358552515506744,3.0,0.0,47.0,14.0,0.014,-0.0005334849702194333,-0.00035727728391066194,0.013699095696210861,-0.0020508666057139635,-3.6582878237823024e-05,-0.004518742207437754,-1.1623269319534302,-1.155190110206604,-0.018125636503100395,0.013794196769595146,-0.00521194189786911,4.162006007391028e-06,0.00021727560670115054,3.6633431911468506,10.0,0.0,0.0,0.0,0.0,0.0,32.766,32.766,32.766,32.766,32.766,2023.6607666015625,809.5053100585938,29.71841812133789,,False,
1783648060.21954,2026-07-09T18:47:40,14634,20260709_184731,,,,,,ground_idle,,,,,,,,,False,-0.02358824759721756,-0.021523207426071167,1.0006005764007568,-0.18023335933685303,-0.2680368721485138,-0.07358552515506744,3.0,0.0,47.0,14.0,0.014,-0.0005334849702194333,-0.00035727728391066194,0.013699095696210861,-0.0020508666057139635,-3.6582878237823024e-05,-0.004518742207437754,-1.195493459701538,-1.1432409286499023,-0.018353117629885674,0.013365427032113075,-0.0060412283055484295,2.7438254619482905e-06,0.00016898239846341312,3.6633431911468506,10.0,0.0,0.0,0.0,0.0,0.0,32.766,32.766,32.766,32.766,32.766,2023.6607666015625,809.5053100585938,29.71841812133789,,False,
1783648060.2296803,2026-07-09T18:47:40,14654,20260709_184731,,,,,,ground_idle,,,,,,,,,False,-0.021969426423311234,-0.022135237231850624,0.9992772936820984,0.2174222320318222,0.07378094643354416,-0.10225087404251099,0.0,-8.0,44.0,13.0,0.013,6.230646977201104e-05,-0.0005788048729300499,0.0133228013291955,0.0009521004976704717,-0.0015189516125246882,-0.0057039749808609486,-1.195493459701538,-1.1432409286499023,-0.018353117629885674,0.013365427032113075,-0.0060412283055484295,2.7438254619482905e-06,0.00016898239846341312,3.6633431911468506,10.0,0.0,0.0,0.0,0.0,0.0,32.766,32.766,32.766,32.766,32.766,2023.6607666015625,809.5053100585938,29.71841812133789,,False,
1783648060.2398965,2026-07-09T18:47:40,14677,20260709_184731,,,,,,ground_idle,,,,,,,,,False,-0.022696245461702347,-0.020967887714505196,1.0016933679580688,-0.06359131634235382,-0.30381637811660767,0.08222942799329758,6.0,0.0,50.0,13.0,0.013,-0.0007769828662276268,-0.0011940564727410674,0.013225885108113289,-0.003732457524165511,-0.005075642839074135,-0.005259508267045021,-1.1542232036590576,-1.1325894594192505,-0.017614422366023064,0.013365427032113075,-0.0060412283055484295,2.7438254619482905e-06,0.00016898239846341312,3.6633431911468506,10.0,0.0,0.0,0.0,0.0,0.0,32.766,32.766,32.766,32.766,32.766,2023.5185546875,809.5181884765625,29.728248596191406,,False,
1783648060.2501004,2026-07-09T18:47:40,14690,20260709_184731,,,,,,ground_idle,,,,,,,,,False,-0.021219365298748016,-0.023927735164761543,0.9996786117553711,-0.009259081445634365,-0.010036768391728401,0.25376638770103455,0.0,-3.0,28.0,13.0,0.013,2.6953364795190282e-05,-0.0005749365082010627,0.013130280189216137,0.000437910231994465,-0.0014915759675204754,-0.004952503368258476,-1.1542232036590576,-1.1325894594192505,-0.017614422366023064,0.013130280189216137,-0.004972288850694895,4.689091383625055e-06,0.0002189766091760248,3.6633431911468506,10.0,0.0,0.0,0.0,0.0,0.0,32.766,32.766,32.766,32.766,32.766,2023.5185546875,809.5181884765625,29.728248596191406,,False,
1783648060.2602744,2026-07-09T18:47:40,14690,20260709_184731,,,,,,ground_idle,,,,,,,,,False,-0.021219365298748016,-0.023927735164761543,0.9996786117553711,-0.009259081445634365,-0.010036768391728401,0.25376638770103455,0.0,-3.0,28.0,13.0,0.013,2.6953364795190282e-05,-0.0005749365082010627,0.013130280189216137,0.000437910231994465,-0.0014915759675204754,-0.004952503368258476,-1.1542232036590576,-1.1325894594192505,-0.017614422366023064,0.013130280189216137,-0.004972288850694895,4.689091383625055e-06,0.0002189766091760248,3.6633431911468506,10.0,0.0,0.0,0.0,0.0,0.0,32.766,32.766,32.766,32.766,32.766,2023.5185546875,809.5181884765625,29.728248596191406,,False,
1783648060.2704153,2026-07-09T18:47:40,14692,20260709_184731,,,,,,ground_idle,,,,,,,,,False,-0.021219365298748016,-0.023927735164761543,0.9996786117553711,-0.009259081445634365,-0.010036768391728401,0.25376638770103455,0.0,-3.0,28.0,13.0,0.013,2.6953364795190282e-05,-0.0005749365082010627,0.013130280189216137,0.000437910231994465,-0.0014915759675204754,-0.004952503368258476,-1.1542232036590576,-1.1325894594192505,-0.017614422366023064,0.013130280189216137,-0.004972288850694895,4.689091383625055e-06,0.0002189766091760248,3.6633431911468506,10.0,0.0,0.0,0.0,0.0,0.0,32.766,32.766,32.766,32.766,32.766,2023.5185546875,809.5181884765625,29.728248596191406,,False,
1783648060.2805564,2026-07-09T18:47:40,14709,20260709_184731,,,,,,ground_idle,,,,,,,,,False,-0.020772282034158707,-0.022359009832143784,1.0005418062210083,0.13547568023204803,0.3952595293521881,0.041664235293865204,0.0,1.0,44.0,13.0,0.013,2.6953364795190282e-05,-0.0005749365082010627,0.013130280189216137,0.000437910231994465,-0.0014915759675204754,-0.004952503368258476,-1.1815928220748901,-1.1642173528671265,-0.016558583825826645,0.013130280189216137,-0.004972288850694895,4.689091383625055e-06,0.0002189766091760248,3.6633431911468506,10.0,0.0,0.0,0.0,0.0,0.0,32.766,32.766,32.766,32.766,32.766,2023.5185546875,809.5181884765625,29.728248596191406,,False,
1783648060.2907026,2026-07-09T18:47:40,14730,20260709_184731,,,,,,ground_idle,,,,,,,,,False,-0.019059918820858,-0.022162972018122673,0.9986248016357422,0.12654778361320496,0.08343404531478882,0.23905877768993378,5.0,3.0,48.0,13.0,0.013,-0.0016217330703511834,-0.0007920288480818272,0.012891978025436401,-0.007840991951525211,-0.0033130687661468983,-0.004979646764695644,-1.182525634765625,-1.1006838083267212,-0.0138545585796237,0.013130280189216137,-0.004972288850694895,4.689091383625055e-06,0.0002189766091760248,3.6633431911468506,10.0,0.0,0.0,0.0,0.0,0.0,32.766,32.766,32.766,32.766,32.766,2023.5185546875,809.5181884765625,29.728248596191406,,False,
1783648060.3008626,2026-07-09T18:47:40,14734,20260709_184731,,,,,,ground_idle,,,,,,,,,False,-0.019059918820858,-0.022162972018122673,0.9986248016357422,0.12654778361320496,0.08343404531478882,0.23905877768993378,5.0,3.0,48.0,13.0,0.013,-0.0016217330703511834,-0.0007920288480818272,0.012891978025436401,-0.007840991951525211,-0.0033130687661468983,-0.004979646764695644,-1.182525634765625,-1.1006838083267212,-0.0138545585796237,0.012477732263505459,-0.00700805289670825,2.7530286388355307e-06,0.0001687504700385034,3.6633431911468506,10.0,0.0,0.0,0.0,0.0,0.0,32.766,32.766,32.766,32.766,32.766,2023.5185546875,809.5181884765625,29.728248596191406,,False,
1783648060.3110983,2026-07-09T18:47:40,14734,20260709_184731,,,,,,ground_idle,,,,,,,,,False,-0.019059918820858,-0.022162972018122673,0.9986248016357422,0.12654778361320496,0.08343404531478882,0.23905877768993378,5.0,3.0,48.0,13.0,0.013,-0.0016217330703511834,-0.0007920288480818272,0.012891978025436401,-0.007840991951525211,-0.0033130687661468983,-0.004979646764695644,-1.1697570085525513,-1.105109453201294,-0.013876275159418583,0.012477732263505459,-0.00700805289670825,2.7530286388355307e-06,0.0001687504700385034,3.6633431911468506,10.0,0.0,0.0,0.0,0.0,0.0,32.766,32.766,32.766,32.766,32.766,2023.5185546875,809.5181884765625,29.728248596191406,,False,
1783648060.321238,2026-07-09T18:47:40,14747,20260709_184731,,,,,,ground_idle,,,,,,,,,False,-0.019199075177311897,-0.023149022832512856,0.9994539618492126,-0.04236043989658356,0.07784104347229004,0.12560240924358368,-1.0,-4.0,43.0,12.0,0.012,-0.0016217330703511834,-0.0007920288480818272,0.012891978025436401,-0.007840991951525211,-0.0033130687661468983,-0.004979646764695644,-1.1697570085525513,-1.105109453201294,-0.013876275159418583,0.012477732263505459,-0.00700805289670825,2.7530286388355307e-06,0.0001687504700385034,3.6633431911468506,10.0,0.0,0.0,0.0,0.0,0.0,32.766,32.766,32.766,32.766,32.766,2023.5185546875,809.5181884765625,29.728248596191406,,False,
1783648060.3313859,2026-07-09T18:47:40,14759,20260709_184731,,,,,,ground_idle,,,,,,,,,False,-0.020187102258205414,-0.022259151563048363,1.0003036260604858,0.07354532182216644,0.14942903816699982,-0.22536227107048035,-3.0,4.0,49.0,12.0,0.012,5.335291461960878e-06,-0.0005997237167321146,0.012408741749823093,0.0015896117547526956,-0.0022950393613427877,-0.006952718831598759,-1.1763628721237183,-1.1792221069335938,-0.0138038145378232,0.012477732263505459,-0.00700805289670825,2.7530286388355307e-06,0.0001687504700385034,3.6633431911468506,10.0,0.0,0.0,0.0,0.0,0.0,32.766,32.766,32.766,32.766,32.766,2023.469482421875,809.5225830078125,29.732860565185547,,False,
1783648060.341569,2026-07-09T18:47:40,14779,20260709_184731,,,,,,ground_idle,,,,,,,,,False,-0.023264694958925247,-0.02372446097433567,1.0012097358703613,-0.19869592785835266,0.08592429757118225,-0.0021968744695186615,-4.0,0.0,41.0,12.0,0.012,-0.0006192250875756145,-0.0012201882200315595,0.012285526841878891,-0.0016754711978137493,-0.005910492967814207,-0.00676936749368906,-1.145857334136963,-1.1516640186309814,-0.014004498720169067,0.012477732263505459,-0.00700805289670825,2.7530286388355307e-06,0.0001687504700385034,3.6633431911468506,10.0,0.0,0.0,0.0,0.0,0.0,32.766,32.766,32.766,32.766,32.766,2023.469482421875,809.5225830078125,29.732860565185547,,False,
1783648060.3517416,2026-07-09T18:47:40,14790,20260709_184731,,,,,,ground_idle,,,,,,,,,False,-0.02227010205388069,-0.023330895230174065,0.9998258352279663,0.014607452787458897,0.49669015407562256,0.16675913333892822,1.0,4.0,24.0,12.0,0.012,-0.0014385080430656672,-0.0006032306118868291,0.012161464430391788,-0.006423307582736015,-0.0026601243298500776,-0.006540709175169468,-1.145857334136963,-1.1516640186309814,-0.014004498720169067,0.012227578088641167,-0.006847457028925419,4.227847512083827e-06,0.00021774486231151968,3.6633431911468506,10.0,0.0,0.0,0.0,0.0,0.0,32.766,32.766,32.766,32.766,32.766,2023.469482421875,809.5225830078125,29.732860565185547,,False,
1783648060.3619013,2026-07-09T18:47:40,14790,20260709_184731,,,,,,ground_idle,,,,,,,,,False,-0.02227010205388069,-0.023330895230174065,0.9998258352279663,0.014607452787458897,0.49669015407562256,0.16675913333892822,1.0,4.0,24.0,12.0,0.012,-0.0014385080430656672,-0.0006032306118868291,0.012161464430391788,-0.006423307582736015,-0.0026601243298500776,-0.006540709175169468,-1.145857334136963,-1.1516640186309814,-0.014004498720169067,0.012227578088641167,-0.006847457028925419,4.227847512083827e-06,0.00021774486231151968,3.6633431911468506,10.0,0.0,0.0,0.0,0.0,0.0,32.766,32.766,32.766,32.766,32.766,2023.469482421875,809.5225830078125,29.732860565185547,,False,
1783648060.3720434,2026-07-09T18:47:40,14790,20260709_184731,,,,,,ground_idle,,,,,,,,,False,-0.02227010205388069,-0.023330895230174065,0.9998258352279663,0.014607452787458897,0.49669015407562256,0.16675913333892822,1.0,4.0,24.0,12.0,0.012,-0.0014385080430656672,-0.0006032306118868291,0.012161464430391788,-0.006423307582736015,-0.0026601243298500776,-0.006540709175169468,-1.145857334136963,-1.1516640186309814,-0.014004498720169067,0.012227578088641167,-0.006847457028925419,4.227847512083827e-06,0.00021774486231151968,3.6633431911468506,10.0,0.0,0.0,0.0,0.0,0.0,32.766,32.766,32.766,32.766,32.766,2023.469482421875,809.5225830078125,29.732860565185547,,False,
1783648060.3822346,2026-07-09T18:47:40,14807,20260709_184731,,,,,,ground_idle,,,,,,,,,False,-0.02269936539232731,-0.023487810045480728,1.0001503229141235,-0.07025075703859329,0.21226128935813904,-0.10673438012599945,-1.0,-3.0,27.0,15.0,0.015,-0.0014385080430656672,-0.0006032306118868291,0.012161464430391788,-0.006423307582736015,-0.0026601243298500776,-0.006540709175169468,-1.175175428390503,-1.1166146993637085,-0.012948782183229923,0.012227578088641167,-0.006847457028925419,4.227847512083827e-06,0.00021774486231151968,3.6633431911468506,10.0,0.0,0.0,0.0,0.0,0.0,32.766,32.766,32.766,32.766,32.766,2023.469482421875,809.5225830078125,29.732860565185547,,False,
1783648060.3923798,2026-07-09T18:47:40,14829,20260709_184731,,,,,,arming,,,,,,,,,False,-0.023265838623046875,-0.02211802266538143,0.9988415837287903,-0.16986745595932007,-0.038355495780706406,-0.07692103832960129,5.0,-2.0,42.0,15.0,0.015,-0.0014219192089512944,-0.0005820832448080182,0.01338088046759367,-0.006327757611870766,-0.002935234224423766,-2.611974377941806e-05,-1.1735482215881348,-1.1198828220367432,-0.012597114779055119,0.012227578088641167,-0.006847457028925419,4.227847512083827e-06,0.00021774486231151968,3.6633431911468506,10.0,0.0,0.0,0.0,0.0,0.0,32.766,32.766,32.766,32.766,32.766,2023.469482421875,809.5225830078125,29.732860565185547,,False,
1783648060.4025438,2026-07-09T18:47:40,14829,20260709_184731,,,,,,arming,,,,,,,,,False,-0.023265838623046875,-0.02211802266538143,0.9988415837287903,-0.16986745595932007,-0.038355495780706406,-0.07692103832960129,5.0,-2.0,42.0,15.0,0.015,-0.0014219192089512944,-0.0005820832448080182,0.01338088046759367,-0.006327757611870766,-0.002935234224423766,-2.611974377941806e-05,-1.1735482215881348,-1.1198828220367432,-0.012597114779055119,0.012227578088641167,-0.006847457028925419,4.227847512083827e-06,0.00021774486231151968,3.6633431911468506,10.0,0.0,0.0,0.0,0.0,0.0,32.766,32.766,32.766,32.766,32.766,2023.469482421875,809.5225830078125,29.732860565185547,,False,
1783648060.4127114,2026-07-09T18:47:40,14830,20260709_184731,,,,,,arming,,,,,,,,,False,-0.023265838623046875,-0.02211802266538143,0.9988415837287903,-0.16986745595932007,-0.038355495780706406,-0.07692103832960129,5.0,-2.0,42.0,15.0,0.015,-0.0008136463584378362,-0.0007928237318992615,0.013394593261182308,-0.003166136797517538,-0.004431299399584532,5.3253093028615694e-06,-1.1735482215881348,-1.1198828220367432,-0.012597114779055119,0.012227578088641167,-0.006847457028925419,4.227847512083827e-06,0.00021774486231151968,3.6633431911468506,10.0,0.0,0.0,0.0,0.0,0.0,32.766,32.766,32.766,32.766,32.766,2023.469482421875,809.5225830078125,29.732860565185547,,False,
1783648060.4229035,2026-07-09T18:47:40,14842,20260709_184731,,,,,,arming,,,,,,,,,False,-0.018718654289841652,-0.022187400609254837,1.0004962682724,-0.22265203297138214,0.06112247332930565,-0.24574369192123413,-1.0,0.0,42.0,18.0,0.018,-0.0008136463584378362,-0.0007928237318992615,0.013394593261182308,-0.003166136797517538,-0.004431299399584532,5.3253093028615694e-06,-1.1630784273147583,-1.149634838104248,-0.01287034060806036,0.015313439071178436,0.00945177674293518,2.7532269086805172e-06,0.00016871369734872133,3.6633431911468506,10.0,0.0,0.0,0.0,0.0,0.0,32.766,32.766,32.766,32.766,32.766,2023.469482421875,809.5225830078125,29.732860565185547,,False,
1783648060.4331005,2026-07-09T18:47:40,14859,20260709_184731,,,,,,arming,,,,,,,,,False,-0.021295644342899323,-0.022941390052437782,0.9995825886726379,-0.1733492761850357,0.03085949458181858,0.04573679342865944,-4.0,-3.0,41.0,18.0,0.018,-0.0015985824866220355,-0.0007557907374575734,0.015408813953399658,-0.007134852930903435,-0.0041908691637218,0.009751706384122372,-1.166914939880371,-1.1146769523620605,-0.01277524046599865,0.015313439071178436,0.00945177674293518,2.7532269086805172e-06,0.00016871369734872133,3.6633431911468506,10.0,0.0,0.0,0.0,0.0,0.0,32.766,32.766,32.766,32.766,32.766,2023.5076904296875,809.5188598632812,29.73978042602539,,False,
1783648060.4432979,2026-07-09T18:47:40,14879,20260709_184731,,,,,,arming,,,,,,,,,False,-0.021721236407756805,-0.02200675569474697,1.0004383325576782,0.010716299526393414,-0.011630089022219181,0.25768691301345825,2.0,-6.0,38.0,18.0,0.018,-0.0010124013060703874,6.886413029860705e-05,0.015616465359926224,-0.003504023188725114,0.00010972169548040256,0.0099289920181036,-1.204350471496582,-1.1405340433120728,-0.01246171910315752,0.015313439071178436,0.00945177674293518,2.7532269086805172e-06,0.00016871369734872133,3.6633431911468506,10.0,0.0,0.0,0.0,0.0,0.0,32.766,32.766,32.766,32.766,32.766,2023.5076904296875,809.5188598632812,29.73978042602539,,False,
1783648060.4534693,2026-07-09T18:47:40,14890,20260709_184731,,,,,,arming,,,,,,,,,False,-0.021160202100872993,-0.020832311362028122,1.000579833984375,0.009094124659895897,-0.09726741909980774,-0.014245215803384781,-2.0,4.0,25.0,18.0,0.018,-0.0005796203622594476,6.88972431817092e-05,0.015834134072065353,-0.0013425247743725777,-4.795451241079718e-05,0.010135320015251637,-1.204350471496582,-1.1405340433120728,-0.01246171910315752,0.015834134072065353,0.010102950036525726,4.69635278932401e-06,0.00021871099306736141,3.6633431911468506,10.0,0.0,0.0,0.0,0.0,0.0,32.766,32.766,32.766,32.766,32.766,2023.5076904296875,809.5188598632812,29.73978042602539,,False,
1783648060.46365,2026-07-09T18:47:40,14892,20260709_184731,,,,,,arming,,,,,,,,,False,-0.021160202100872993,-0.020832311362028122,1.000579833984375,0.009094124659895897,-0.09726741909980774,-0.014245215803384781,-2.0,4.0,25.0,18.0,0.018,-0.0005796203622594476,6.88972431817092e-05,0.015834134072065353,-0.0013425247743725777,-4.795451241079718e-05,0.010135320015251637,-1.204350471496582,-1.1405340433120728,-0.01246171910315752,0.015834134072065353,0.010102950036525726,4.69635278932401e-06,0.00021871099306736141,3.6633431911468506,10.0,0.0,7000.0,7000.0,7000.0,7000.0,32.766,32.766,32.766,32.766,32.766,2023.5076904296875,809.5188598632812,29.73978042602539,,False,
1783648060.473823,2026-07-09T18:47:40,14899,20260709_184731,,,,,,arming,,,,,,,,,False,-0.022765733301639557,-0.023096594959497452,1.0015369653701782,0.09740820527076721,0.19175507128238678,-0.05230878293514252,4.0,5.0,25.0,16.0,0.016,-0.0005796203622594476,6.88972431817092e-05,0.015834134072065353,-0.0013425247743725777,-4.795451241079718e-05,0.010135320015251637,-1.1652841567993164,-1.111448049545288,-0.011805010959506035,0.015834134072065353,0.010102950036525726,4.69635278932401e-06,0.00021871099306736141,3.6633431911468506,10.0,0.0,7000.0,7000.0,7000.0,7000.0,32.766,32.766,32.766,32.766,32.766,2023.5076904296875,809.5188598632812,29.73978042602539,,False,
1783648060.483985,2026-07-09T18:47:40,14910,20260709_184731,,,,,,arming,,,,,,,,,False,-0.02200566790997982,-0.023028019815683365,1.0006217956542969,0.15321488678455353,0.1555018424987793,-0.051710907369852066,-4.0,-3.0,46.0,16.0,0.016,-0.000995340058580041,7.433778228005394e-05,0.016132542863488197,-0.003616665257140994,-5.670970494975336e-05,0.010857676155865192,-1.1652841567993164,-1.111448049545288,-0.011805010959506035,0.015834134072065353,0.010102950036525726,4.69635278932401e-06,0.00021871099306736141,3.6633431911468506,10.0,0.0,7000.0,7000.0,7000.0,7000.0,32.766,32.766,32.766,32.766,32.766,2023.5076904296875,809.5188598632812,29.73978042602539,,False,
1783648060.494163,2026-07-09T18:47:40,14930,20260709_184731,,,,,,arming,,,,,,,,,False,-0.02264365553855896,-0.021110396832227707,1.0024503469467163,0.04763996601104736,0.11786005645990372,-0.1798328161239624,0.0,-2.0,44.0,16.0,0.016,-0.0003456610138528049,-0.0012090584496036172,0.016358524560928345,-8.09733392088674e-05,-0.006821093149483204,0.011220271699130535,-1.2012035846710205,-1.1400649547576904,-0.011486471630632877,0.015834134072065353,0.010102950036525726,4.69635278932401e-06,0.00021871099306736141,3.6633431911468506,10.0,0.0,7000.0,7000.0,7000.0,7000.0,32.766,32.766,32.766,32.766,32.766,2023.5076904296875,809.5188598632812,29.73978042602539,,False,
1783648060.5043418,2026-07-09T18:47:40,14930,20260709_184731,,,,,,arming,,,,,,,,,False,-0.02264365553855896,-0.021110396832227707,1.0024503469467163,0.04763996601104736,0.11786005645990372,-0.1798328161239624,0.0,-2.0,44.0,16.0,0.016,-0.0003456610138528049,-0.0012090584496036172,0.016358524560928345,-8.09733392088674e-05,-0.006821093149483204,0.011220271699130535,-1.2012035846710205,-1.1400649547576904,-0.011486471630632877,0.015834134072065353,0.010102950036525726,4.69635278932401e-06,0.00021871099306736141,3.6633431911468506,10.0,0.0,7000.0,7000.0,7000.0,7000.0,32.766,32.766,32.766,32.766,32.766,2023.5076904296875,809.5188598632812,29.73978042602539,,False,
1783648060.5145016,2026-07-09T18:47:40,14939,20260709_184731,,,,,,arming,,,,,,,,,False,-0.021091312170028687,-0.022630607709288597,1.0002994537353516,-0.0651453509926796,-0.47133174538612366,-0.19016918540000916,1.0,1.0,39.0,12.0,0.012,-0.0003456610138528049,-0.0012090584496036172,0.016358524560928345,-8.09733392088674e-05,-0.006821093149483204,0.011220271699130535,-1.146670937538147,-1.1700170040130615,-0.01289642509073019,0.014656757935881615,0.002184821991249919,2.752749651335762e-06,0.00016877101734280586,3.6633431911468506,10.0,0.0,7000.0,7000.0,7000.0,7000.0,32.766,32.766,32.766,32.766,32.766,2023.5076904296875,809.5188598632812,29.73978042602539,,False,
1783648060.5246582,2026-07-09T18:47:40,14950,20260709_184731,,,,,,arming,,,,,,,,,False,-0.020888106897473335,-0.021928751841187477,1.0001071691513062,0.12276293337345123,-0.1967809945344925,-0.0157290231436491,-4.0,0.0,28.0,12.0,0.012,-0.000590267067309469,-0.0005979947163723409,0.014689148403704166,-0.0015017028199508786,-0.0031193001195788383,0.002513444283977151,-1.146670937538147,-1.1700170040130615,-0.01289642509073019,0.014656757935881615,0.002184821991249919,2.752749651335762e-06,0.00016877101734280586,3.6633431911468506,10.0,0.0,7000.0,7000.0,7000.0,7000.0,32.766,32.766,32.766,32.766,32.766,2023.5076904296875,809.5188598632812,29.73978042602539,,False,
1783648060.5349143,2026-07-09T18:47:40,14970,20260709_184731,,,,,,arming,,,,,,,,,False,-0.02217893861234188,-0.024195784702897072,0.998639702796936,-0.08787962049245834,-0.12959331274032593,0.026911787688732147,-1.0,-7.0,48.0,12.0,0.012,4.5207652874523774e-05,-0.0003800065314862877,0.014752058312296867,0.0018849947955459356,-0.001998255029320717,0.0024095855187624693,-1.1785094738006592,-1.157322883605957,-0.013566998764872551,0.014656757935881615,0.002184821991249919,2.752749651335762e-06,0.00016877101734280586,3.6633431911468506,10.0,0.0,7000.0,7000.0,7000.0,7000.0,32.766,32.766,32.766,32.766,32.766,2023.556884765625,809.5145874023438,29.742727279663086,,False,
1783648060.5450964,2026-07-09T18:47:40,14987,20260709_184731,,,,,,arming,,,,,,,,,False,-0.021935604512691498,-0.02057512290775776,1.0005468130111694,-0.09218013286590576,-0.02037166990339756,-0.1096620261669159,4.0,2.0,38.0,12.0,0.012,4.5207652874523774e-05,-0.0003800065314862877,0.014752058312296867,0.0018849947955459356,-0.001998255029320717,0.0024095855187624693,-1.18781316280365,-1.184799313545227,-0.015117606148123741,0.014786879532039165,0.002168286358937621,4.2261453927494586e-06,0.00021775989443995059,3.6633431911468506,10.0,0.0,7000.0,7000.0,7000.0,7000.0,32.766,32.766,32.766,32.766,32.766,2023.556884765625,809.5145874023438,29.742727279663086,,False,
1783648060.5552688,2026-07-09T18:47:40,14990,20260709_184731,,,,,,arming,,,,,,,,,False,-0.021935604512691498,-0.02057512290775776,1.0005468130111694,-0.09218013286590576,-0.02037166990339756,-0.1096620261669159,-1.0,6.0,28.0,12.0,0.012,-0.0016606603749096394,-0.0010158865479752421,0.014810984022915363,-0.007483835332095623,-0.005415077321231365,0.0024038017727434635,-1.18781316280365,-1.184799313545227,-0.015117606148123741,0.014786879532039165,0.002168286358937621,4.2261453927494586e-06,0.00021775989443995059,3.6633431911468506,10.0,0.0,7000.0,7000.0,7000.0,7000.0,32.766,32.766,32.766,32.766,32.766,2023.556884765625,809.5145874023438,29.742727279663086,,False,
1783648060.5654187,2026-07-09T18:47:40,14992,20260709_184731,,,,,,arming,,,,,,,,,False,-0.021935604512691498,-0.02057512290775776,1.0005468130111694,-0.09218013286590576,-0.02037166990339756,-0.1096620261669159,-1.0,6.0,28.0,12.0,0.012,-0.0016606603749096394,-0.0010158865479752421,0.014810984022915363,-0.007483835332095623,-0.005415077321231365,0.0024038017727434635,-1.18781316280365,-1.184799313545227,-0.015117606148123741,0.014786879532039165,0.002168286358937621,4.2261453927494586e-06,0.00021775989443995059,3.658064603805542,10.0,0.0,7000.0,7000.0,7000.0,7000.0,32.766,32.766,32.766,32.766,32.766,2023.556884765625,809.5145874023438,29.742727279663086,,False,
1783648060.5755618,2026-07-09T18:47:40,15004,20260709_184731,,,,,,arming,,,,,,,,,False,-0.02216220088303089,-0.02265896461904049,1.0005978345870972,0.21645694971084595,-0.4226859211921692,0.09178968518972397,2.0,-4.0,30.0,13.0,0.013,-0.0016606603749096394,-0.0010158865479752421,0.014810984022915363,-0.007483835332095623,-0.005415077321231365,0.0024038017727434635,-1.1621736288070679,-1.105492115020752,-0.013318981043994427,0.014786879532039165,0.002168286358937621,4.2261453927494586e-06,0.00021775989443995059,3.658064603805542,10.0,0.0,7000.0,7000.0,7000.0,7000.0,32.766,32.766,0.915,32.766,32.766,2023.556884765625,809.5145874023438,29.742727279663086,,False,
1783648060.5857122,2026-07-09T18:47:40,15017,20260709_184731,,,,,,arming,,,,,,,,,False,-0.02316914312541485,-0.02017039619386196,1.0000522136688232,-0.07444795221090317,0.4253760874271393,-0.46979576349258423,-2.0,-4.0,42.0,13.0,0.013,1.0830715837073512e-05,-0.0010226877639070153,0.01401523593813181,0.001557579031214118,-0.005110214930027723,-0.0014422835083678365,-1.1667426824569702,-1.1740412712097168,-0.016024738550186157,0.014786879532039165,0.002168286358937621,4.2261453927494586e-06,0.00021775989443995059,3.658064603805542,10.0,0.0,7000.0,7000.0,7000.0,7000.0,32.766,32.766,0.915,32.766,32.766,2023.556884765625,809.5145874023438,29.742727279663086,,False,
1783648060.59586,2026-07-09T18:47:40,15030,20260709_184731,,,,,,arming,,,,,,,,,False,-0.021119724959135056,-0.022924965247511864,1.0006393194198608,-0.2702881991863251,0.5043149590492249,0.19464755058288574,-3.0,2.0,49.0,13.0,0.013,-0.000602182000875473,-0.000589940114878118,0.01399767305701971,-0.0021911882795393467,-0.0024443920701742172,-0.0011089600156992674,-1.1667426824569702,-1.1740412712097168,-0.016024738550186157,0.014786879532039165,0.002168286358937621,4.2261453927494586e-06,0.00021775989443995059,3.658064603805542,10.0,0.0,7000.0,7000.0,7000.0,7000.0,32.766,32.766,0.915,32.766,32.766,2023.556884765625,809.5145874023438,29.742727279663086,,False,
1783648060.6060052,2026-07-09T18:47:40,15034,20260709_184731,,,,,,arming,,,,,,,,,False,-0.021119724959135056,-0.022924965247511864,1.0006393194198608,-0.2702881991863251,0.5043149590492249,0.19464755058288574,-3.0,2.0,49.0,13.0,0.013,-0.000602182000875473,-0.000589940114878118,0.01399767305701971,-0.0021911882795393467,-0.0024443920701742172,-0.0011089600156992674,-1.1904058456420898,-1.152801513671875,-0.01692589744925499,0.013571321964263916,-0.003245861502364278,2.752783530013403e-06,0.00016880845942068845,3.658064603805542,10.0,0.0,7000.0,7000.0,7000.0,7000.0,32.766,32.766,0.915,32.766,32.766,2023.556884765625,809.5145874023438,29.742727279663086,,False,
1783648060.61615,2026-07-09T18:47:40,15047,20260709_184731,,,,,,arming,,,,,,,,,False,-0.019414938986301422,-0.022480027750134468,0.9994924068450928,0.024057362228631973,0.5100317597389221,-0.18516580760478973,0.0,4.0,40.0,13.0,0.013,-0.000602182000875473,-0.000589940114878118,0.01399767305701971,-0.0021911882795393467,-0.0024443920701742172,-0.0011089600156992674,-1.1904058456420898,-1.152801513671875,-0.01692589744925499,0.013571321964263916,-0.003245861502364278,2.752783530013403e-06,0.00016880845942068845,3.6369502544403076,10.0,0.0,7000.0,7000.0,7000.0,7000.0,32.766,32.766,0.915,32.766,32.766,2023.556884765625,809.5145874023438,29.742727279663086,,False,
1783648060.6262922,2026-07-09T18:47:40,15057,20260709_184731,,,,,,arming,,,,,,,,,False,-0.02137247659265995,-0.02036895975470543,0.9993910789489746,-0.22325684130191803,0.4601636826992035,-0.32696762681007385,-1.0,-7.0,31.0,13.0,0.013,3.2403731893282384e-05,-0.0003812667855527252,0.013551980257034302,0.0017508482560515404,-0.0011954167857766151,-0.0030000428669154644,-1.2012178897857666,-1.185010552406311,-0.01932855322957039,0.013571321964263916,-0.003245861502364278,2.752783530013403e-06,0.00016880845942068845,3.6369502544403076,10.0,0.0,7000.0,7000.0,7000.0,7000.0,32.766,32.766,0.915,32.766,32.766,2023.556884765625,809.5145874023438,29.742727279663086,,False,
1783648060.6364355,2026-07-09T18:47:40,15074,20260709_184731,,,,,,arming,,,,,,,,,False,-0.01743456721305847,-0.01732512004673481,1.0016742944717407,0.17540642619132996,0.6399204134941101,-0.12847061455249786,3.0,2.0,42.0,13.0,0.013,-0.0006017053965479136,-0.0005914792418479919,0.013500054366886616,-0.0015154879074543715,-0.002327675698325038,-0.002835014369338751,-1.1901488304138184,-1.1611907482147217,-0.01793087087571621,0.013571321964263916,-0.003245861502364278,2.752783530013403e-06,0.00016880845942068845,3.6369502544403076,10.0,0.0,7000.0,7000.0,7000.0,7000.0,32.766,32.766,0.915,32.766,32.766,2023.556884765625,809.5148315429688,29.747907638549805,,False,
1783648060.6465945,2026-07-09T18:47:40,15087,20260709_184731,,,,,,arming,,,,,,,,,False,-0.01903413236141205,-0.01902882196009159,1.001115322113037,-0.08144795894622803,-0.07118093967437744,0.23852276802062988,0.0,-3.0,44.0,13.0,0.013,-0.0006017053965479136,-0.0005914792418479919,0.013500054366886616,-0.0015154879074543715,-0.002327675698325038,-0.002835014369338751,-1.1901488304138184,-1.1611907482147217,-0.01793087087571621,0.01345974113792181,-0.0025854953564703465,4.69613223685883e-06,0.00021880801068618894,3.6369502544403076,10.0,0.0,7000.0,7000.0,7000.0,7000.0,32.766,32.766,0.915,32.766,32.766,2023.556884765625,809.5148315429688,29.747907638549805,,False,
1783648060.6567504,2026-07-09T18:47:40,15089,20260709_184731,,,,,,arming,,,,,,,,,False,-0.01903413236141205,-0.01902882196009159,1.001115322113037,-0.08144795894622803,-0.07118093967437744,0.23852276802062988,0.0,7.0,27.0,13.0,0.013,-0.0006017053965479136,-0.0005914792418479919,0.013500054366886616,-0.0015154879074543715,-0.002327675698325038,-0.002835014369338751,-1.1901488304138184,-1.1611907482147217,-0.01793087087571621,0.01345974113792181,-0.0025854953564703465,4.69613223685883e-06,0.00021880801068618894,3.6369502544403076,10.0,0.0,7000.0,7000.0,7000.0,7000.0,32.766,32.766,0.915,32.766,32.766,2023.556884765625,809.5148315429688,29.747907638549805,,False,
1783648060.6668942,2026-07-09T18:47:40,15090,20260709_184731,,,,,,arming,,,,,,,,,False,-0.01903413236141205,-0.01902882196009159,1.001115322113037,-0.08144795894622803,-0.07118093967437744,0.23852276802062988,0.0,7.0,27.0,13.0,0.013,-0.0014575982932001352,-0.0005942514981143177,0.01345974113792181,-0.006041078362613916,-0.002165996702387929,-0.0024236415047198534,-1.1901488304138184,-1.1611907482147217,-0.01793087087571621,0.01345974113792181,-0.0025854953564703465,4.69613223685883e-06,0.00021880801068618894,3.6369502544403076,10.0,0.0,7000.0,7000.0,7000.0,7000.0,32.766,32.766,0.915,32.766,32.766,2023.556884765625,809.5148315429688,29.747907638549805,,False,
1783648060.677051,2026-07-09T18:47:40,15104,20260709_184731,,,,,,arming,,,,,,,,,False,-0.01958123967051506,-0.021789146587252617,0.9987053275108337,0.03862326219677925,0.21550457179546356,-0.262610524892807,0.0,1.0,27.0,13.0,0.013,-0.0014575982932001352,-0.0005942514981143177,0.01345974113792181,-0.006041078362613916,-0.002165996702387929,-0.0024236415047198534,-1.1889657974243164,-1.118190050125122,-0.015106291510164738,0.01345974113792181,-0.0025854953564703465,4.69613223685883e-06,0.00021880801068618894,3.6369502544403076,10.0,0.0,7000.0,7000.0,7000.0,7000.0,32.766,32.766,32.766,32.766,32.766,2023.556884765625,809.5148315429688,29.747907638549805,,False,
1783648060.6871927,2026-07-09T18:47:40,15129,20260709_184731,,,,,,arming,,,,,,,,,False,-0.02046426385641098,-0.015857135877013206,0.9986094236373901,-0.33823859691619873,-0.1399393528699875,-0.2684575319290161,0.0,4.0,43.0,13.0,0.013,-0.0012363797286525369,0.00023894672631286085,0.013198647648096085,-0.004180668853223324,0.002742670476436615,-0.0032469318248331547,-1.2242965698242188,-1.133360505104065,-0.017488189041614532,0.01345974113792181,-0.0025854953564703465,4.69613223685883e-06,0.00021880801068618894,3.6369502544403076,10.0,0.0,7000.0,7000.0,7000.0,7000.0,32.766,32.766,32.766,32.766,32.766,2023.556884765625,809.5148315429688,29.747907638549805,,False,
1783648060.6973417,2026-07-09T18:47:40,15130,20260709_184731,,,,,,arming,,,,,,,,,False,-0.02046426385641098,-0.015857135877013206,0.9986094236373901,-0.33823859691619873,-0.1399393528699875,-0.2684575319290161,0.0,4.0,43.0,13.0,0.013,-0.0014514380600303411,-0.0006036075646989048,0.013147144578397274,-0.005511829163879156,-0.0016630601603537798,-0.0031924147624522448,-1.2242965698242188,-1.133360505104065,-0.017488189041614532,0.01345974113792181,-0.0025854953564703465,4.69613223685883e-06,0.00021880801068618894,3.6369502544403076,10.0,0.0,7000.0,7000.0,7000.0,7000.0,32.766,32.766,32.766,32.766,32.766,2023.556884765625,809.5148315429688,29.747907638549805,,False,
1783648060.7075264,2026-07-09T18:47:40,15130,20260709_184731,,,,,,arming,,,,,,,,,False,-0.02046426385641098,-0.015857135877013206,0.9986094236373901,-0.33823859691619873,-0.1399393528699875,-0.2684575319290161,0.0,4.0,43.0,13.0,0.013,-0.0014514380600303411,-0.0006036075646989048,0.013147144578397274,-0.005511829163879156,-0.0016630601603537798,-0.0031924147624522448,-1.2242965698242188,-1.133360505104065,-0.017488189041614532,0.01345974113792181,-0.0025854953564703465,4.69613223685883e-06,0.00021880801068618894,3.6369502544403076,10.0,0.0,7000.0,7000.0,7000.0,7000.0,32.766,32.766,32.766,32.766,32.766,2023.556884765625,809.5148315429688,29.747907638549805,,False,
1783648060.7176726,2026-07-09T18:47:40,15134,20260709_184731,,,,,,arming,,,,,,,,,False,-0.02046426385641098,-0.015857135877013206,0.9986094236373901,-0.33823859691619873,-0.1399393528699875,-0.2684575319290161,0.0,4.0,43.0,13.0,0.013,-0.0014514380600303411,-0.0006036075646989048,0.013147144578397274,-0.005511829163879156,-0.0016630601603537798,-0.0031924147624522448,-1.2242965698242188,-1.133360505104065,-0.017488189041614532,0.014304962940514088,0.002565348520874977,2.752929731286713e-06,0.000168824233696796,3.6369502544403076,10.0,0.0,7000.0,7000.0,7000.0,7000.0,32.766,32.766,32.766,32.766,32.766,2023.556884765625,809.5148315429688,29.747907638549805,,False,
1783648060.7278156,2026-07-09T18:47:40,15149,20260709_184731,,,,,,arming,,,,,,,,,False,-0.01783987320959568,-0.02002536505460739,0.9982295036315918,-0.4153038561344147,0.056500695645809174,-0.1651635617017746,4.0,-2.0,31.0,16.0,0.016,-0.0014514380600303411,-0.0006036075646989048,0.013147144578397274,-0.005511829163879156,-0.0016630601603537798,-0.0031924147624522448,-1.1849961280822754,-1.1254780292510986,-0.01958007551729679,0.014304962940514088,0.002565348520874977,2.752929731286713e-06,0.000168824233696796,3.642228841781616,10.0,0.0,7000.0,7000.0,7000.0,7000.0,32.766,32.766,32.766,32.766,32.766,2023.556884765625,809.5148315429688,29.747907638549805,,False,
1783648060.738021,2026-07-09T18:47:40,15169,20260709_184731,,,,,,arming,,,,,,,,,False,-0.02222992293536663,-0.018306531012058258,0.9965727925300598,0.10805553942918777,-0.027453981339931488,0.1797260195016861,4.0,0.0,39.0,16.0,0.016,-0.0005984212039038539,-0.0014132785145193338,0.014332378283143044,-0.0004462198994588107,-0.005712355487048626,0.0025686859153211117,-1.1517045497894287,-1.1609718799591064,-0.019477469846606255,0.014304962940514088,0.002565348520874977,2.752929731286713e-06,0.000168824233696796,3.642228841781616,10.0,0.0,7000.0,7000.0,7000.0,7000.0,32.766,32.766,32.766,32.766,32.766,2023.5240478515625,809.5177001953125,29.753873825073242,,False,
1783648060.7481773,2026-07-09T18:47:40,15184,20260709_184731,,,,,,arming,,,,,,,,,False,-0.019590435549616814,-0.020268529653549194,1.0006194114685059,0.17297379672527313,-0.040189940482378006,0.17021435499191284,-4.0,3.0,46.0,16.0,0.016,-0.0007916964241303504,-0.001418770058080554,0.01439065020531416,-0.0011336992029100657,-0.005740232300013304,0.002528662560507655,-1.1909432411193848,-1.1302403211593628,-0.02097824029624462,0.014430338516831398,0.0025092202704399824,4.226742021273822e-06,0.0002178156573791057,3.642228841781616,10.0,0.0,7000.0,7000.0,7000.0,7000.0,32.766,32.766,32.766,32.766,32.766,2023.5240478515625,809.5177001953125,29.753873825073242,,False,
1783648060.7583625,2026-07-09T18:47:40,15189,20260709_184731,,,,,,arming,,,,,,,,,False,-0.018433066084980965,-0.023637009784579277,1.0038233995437622,-0.020616773515939713,0.15680018067359924,-0.08133232593536377,3.0,-3.0,31.0,16.0,0.016,-0.0007916964241303504,-0.001418770058080554,0.01439065020531416,-0.0011336992029100657,-0.005740232300013304,0.002528662560507655,-1.1909432411193848,-1.1302403211593628,-0.02097824029624462,0.014430338516831398,0.0025092202704399824,4.226742021273822e-06,0.0002178156573791057,3.642228841781616,10.0,0.0,7000.0,7000.0,7000.0,7000.0,32.766,32.766,32.766,32.766,32.766,2023.5240478515625,809.5177001953125,29.753873825073242,,False,
1783648060.7685223,2026-07-09T18:47:40,15190,20260709_184731,,,,,,arming,,,,,,,,,False,-0.018433066084980965,-0.023637009784579277,1.0038233995437622,-0.020616773515939713,0.15680018067359924,-0.08133232593536377,3.0,-3.0,31.0,16.0,0.016,-0.0007923002704046667,-0.0012017149711027741,0.014457722194492817,-0.000822072965092957,-0.003945706412196159,0.0028664579149335623,-1.1909432411193848,-1.1302403211593628,-0.02097824029624462,0.014430338516831398,0.0025092202704399824,4.226742021273822e-06,0.0002178156573791057,3.642228841781616,10.0,0.0,7000.0,7000.0,7000.0,7000.0,32.766,32.766,32.766,32.766,32.766,2023.5240478515625,809.5177001953125,29.753873825073242,,False,
1783648060.778691,2026-07-09T18:47:40,15207,20260709_184731,,,,,,arming,,,,,,,,,False,-0.016398023813962936,-0.022215744480490685,1.002121925354004,-0.08445235341787338,-0.06084967032074928,0.35006552934646606,0.0,-1.0,29.0,15.0,0.015,-0.0007923002704046667,-0.0012017149711027741,0.014457722194492817,-0.000822072965092957,-0.003945706412196159,0.0028664579149335623,-1.162805438041687,-1.1546186208724976,-0.020063353702425957,0.014430338516831398,0.0025092202704399824,4.226742021273822e-06,0.0002178156573791057,3.6527860164642334,10.0,0.0,7000.0,7000.0,7000.0,7000.0,32.766,32.766,32.766,32.766,32.766,2023.5240478515625,809.5177001953125,29.753873825073242,,False,
1783648060.7889826,2026-07-09T18:47:40,15229,20260709_184731,,,,,,arming,,,,,,,,,False,-0.021856654435396194,-0.02025276981294155,0.9952946901321411,-0.11419495940208435,-0.197032168507576,-0.2540702819824219,-2.0,-4.0,48.0,15.0,0.015,-0.0016376543790102005,-0.0005748783587478101,0.014781136065721512,-0.005205454304814339,-0.0005352512234821916,0.004371831193566322,-1.1897019147872925,-1.1108777523040771,-0.018336083739995956,0.014430338516831398,0.0025092202704399824,4.226742021273822e-06,0.0002178156573791057,3.6527860164642334,10.0,0.0,7000.0,7000.0,7000.0,7000.0,32.766,32.766,32.766,32.766,32.766,2023.5240478515625,809.5177001953125,29.753873825073242,,False,
1783648060.809019,2026-07-09T18:47:40,15234,20260709_184731,,,,,,arming,,,,,,,,,False,-0.021856654435396194,-0.02025276981294155,0.9952946901321411,-0.11419495940208435,-0.197032168507576,-0.2540702819824219,-2.0,-4.0,48.0,15.0,0.015,-0.0008021296234801412,4.6640794607810676e-05,0.014873569831252098,-0.00020573374058585614,0.002658167853951454,0.004538188222795725,-1.1897019147872925,-1.1108777523040771,-0.018336083739995956,0.015803568065166473,0.009100625291466713,2.7530184070201358e-06,0.00016882503405213356,3.6527860164642334,10.0,0.0,7000.0,7000.0,7000.0,7000.0,32.766,32.766,32.766,32.766,32.766,2023.5240478515625,809.5177001953125,29.753873825073242,,False,
1783648060.8191717,2026-07-09T18:47:40,15247,20260709_184731,,,,,,arming,,,,,,,,,False,-0.021766245365142822,-0.023175086826086044,1.0030931234359741,0.030406903475522995,0.06472519040107727,-0.40302205085754395,-1.0,0.0,37.0,17.0,0.017,-0.0008021296234801412,4.6640794607810676e-05,0.014873569831252098,-0.00020573374058585614,0.002658167853951454,0.004538188222795725,-1.2145925760269165,-1.146859049797058,-0.016763128340244293,0.015803568065166473,0.009100625291466713,2.7530184070201358e-06,0.00016882503405213356,3.6527860164642334,10.0,0.0,7000.0,7000.0,7000.0,7000.0,32.766,32.766,32.766,32.766,32.766,2023.5240478515625,809.5177001953125,29.753873825073242,,False,
1783648060.829317,2026-07-09T18:47:40,15258,20260709_184731,,,,,,arming,,,,,,,,,False,-0.018819915130734444,-0.02147003449499607,1.0026171207427979,0.0527411550283432,0.09451700747013092,0.4911975860595703,5.0,3.0,32.0,17.0,0.017,-0.00140001205727458,-0.0007655001827515662,0.01590413600206375,-0.0038060008082538843,-0.0025052211713045835,0.009102296084165573,-1.1745376586914062,-1.1169346570968628,-0.014461616054177284,0.015803568065166473,0.009100625291466713,2.7530184070201358e-06,0.00016882503405213356,3.6527860164642334,10.0,0.0,7000.0,7000.0,7000.0,7000.0,32.766,32.766,32.766,32.766,32.766,2023.4420166015625,809.52490234375,29.761104583740234,,False,
1783648060.8394637,2026-07-09T18:47:40,15279,20260709_184731,,,,,,arming,,,,,,,,,False,-0.018260721117258072,-0.017853617668151855,1.0000627040863037,-0.029194869101047516,0.11283642798662186,-0.4565005898475647,4.0,-2.0,46.0,17.0,0.017,-0.0016056085005402565,-0.0003466072666924447,0.01608647033572197,-0.004566893447190523,-0.00017874938203021884,0.00906542968004942,-1.189731478691101,-1.110780119895935,-0.015718434005975723,0.015803568065166473,0.009100625291466713,2.7530184070201358e-06,0.00016882503405213356,3.6527860164642334,10.0,0.0,7000.0,7000.0,7000.0,7000.0,32.766,32.766,32.766,32.766,32.766,2023.4420166015625,809.52490234375,29.761104583740234,,False,
1783648060.8496175,2026-07-09T18:47:40,15289,20260709_184731,,,,,,arming,,,,,,,,,False,-0.022288961336016655,-0.017788954079151154,0.9977393746376038,0.2178918868303299,0.23232844471931458,-0.41238147020339966,0.0,0.0,26.0,17.0,0.017,-0.0016056085005402565,-0.0003466072666924447,0.01608647033572197,-0.004566893447190523,-0.00017874938203021884,0.00906542968004942,-1.189731478691101,-1.110780119895935,-0.015718434005975723,0.016182517632842064,0.009045320563018322,4.226872988510877e-06,0.00021782111434731632,3.6527860164642334,10.0,0.0,7000.0,7000.0,7000.0,7000.0,32.766,32.766,32.766,32.766,32.766,2023.4420166015625,809.52490234375,29.761104583740234,,False,
1783648060.8597713,2026-07-09T18:47:40,15290,20260709_184731,,,,,,arming,,,,,,,,,False,-0.022288961336016655,-0.017788954079151154,0.9977393746376038,0.2178918868303299,0.23232844471931458,-0.41238147020339966,0.0,0.0,26.0,17.0,0.017,-0.0012154533760622144,-0.0012217526091262698,0.016275163739919662,-0.0023524146527051926,-0.004728785250335932,0.009339038282632828,-1.189731478691101,-1.110780119895935,-0.015718434005975723,0.016182517632842064,0.009045320563018322,4.226872988510877e-06,0.00021782111434731632,3.6527860164642334,10.0,0.0,7000.0,7000.0,7000.0,7000.0,32.766,32.766,32.766,32.766,32.766,2023.4420166015625,809.52490234375,29.761104583740234,,False,
1783648060.86998,2026-07-09T18:47:40,15290,20260709_184731,,,,,,arming,,,,,,,,,False,-0.022288961336016655,-0.017788954079151154,0.9977393746376038,0.2178918868303299,0.23232844471931458,-0.41238147020339966,0.0,0.0,26.0,17.0,0.017,-0.0012154533760622144,-0.0012217526091262698,0.016275163739919662,-0.0023524146527051926,-0.004728785250335932,0.009339038282632828,-1.189731478691101,-1.110780119895935,-0.015718434005975723,0.016182517632842064,0.009045320563018322,4.226872988510877e-06,0.00021782111434731632,3.6527860164642334,10.0,0.0,7000.0,7000.0,7000.0,7000.0,32.766,32.766,32.766,32.766,32.766,2023.4420166015625,809.52490234375,29.761104583740234,,False,
1783648060.8801696,2026-07-09T18:47:40,15299,20260709_184731,,,,,,arming,,,,,,,,,False,-0.021491462364792824,-0.01842203177511692,0.9976300597190857,-0.02425169013440609,0.023541521281003952,-0.2867963910102844,0.0,-2.0,27.0,16.0,0.016,-0.0012154533760622144,-0.0012217526091262698,0.016275163739919662,-0.0023524146527051926,-0.004728785250335932,0.009339038282632828,-1.1519068479537964,-1.1280580759048462,-0.01671874150633812,0.016182517632842064,0.009045320563018322,4.226872988510877e-06,0.00021782111434731632,3.6527860164642334,10.0,0.0,7000.0,7000.0,7000.0,7000.0,32.766,32.766,32.766,32.766,32.766,2023.4420166015625,809.52490234375,29.761104583740234,,False,
1783648060.8903246,2026-07-09T18:47:40,15319,20260709_184731,,,,,,arming,,,,,,,,,False,-0.01586703211069107,-0.023723077028989792,1.0048795938491821,0.06735517084598541,-0.046584051102399826,0.0004601909313350916,7.0,0.0,43.0,16.0,0.016,-0.000788937381003052,0.0003142661589663476,0.01634121686220169,-0.00025988847482949495,0.00416702451184392,0.008836290799081326,-1.2183191776275635,-1.1432578563690186,-0.018871545791625977,0.016182517632842064,0.009045320563018322,4.226872988510877e-06,0.00021782111434731632,3.6527860164642334,10.0,0.0,7000.0,7000.0,7000.0,7000.0,32.766,32.766,32.766,32.766,32.766,2023.4420166015625,809.52490234375,29.761104583740234,,False,
1783648060.900501,2026-07-09T18:47:40,15330,20260709_184731,,,,,,arming,,,,,,,,,False,-0.019273599609732628,-0.0216284841299057,1.0034211874008179,-0.22844518721103668,-0.3662828505039215,0.3004723787307739,-6.0,0.0,38.0,16.0,0.016,-0.000785212847404182,9.96945018414408e-05,0.016544653102755547,-0.00011723108764272183,0.002694812137633562,0.009077387861907482,-1.2183191776275635,-1.1432578563690186,-0.018871545791625977,0.016182517632842064,0.009045320563018322,4.226872988510877e-06,0.00021782111434731632,3.6527860164642334,10.0,0.0,7000.0,7000.0,7000.0,7000.0,32.766,32.766,32.766,32.766,32.766,2023.4420166015625,809.52490234375,29.761104583740234,,False,
1783648060.9106581,2026-07-09T18:47:40,15337,20260709_184731,,,,,,arming,,,,,,,,,False,-0.021572228521108627,-0.02026461437344551,1.000465750694275,-0.17585337162017822,-0.10214708745479584,0.21069611608982086,-6.0,0.0,38.0,16.0,0.016,-0.000785212847404182,9.96945018414408e-05,0.016544653102755547,-0.00011723108764272183,0.002694812137633562,0.009077387861907482,-1.206260085105896,-1.143556833267212,-0.018655672669410706,0.01640855148434639,0.008311173878610134,2.7530263650987763e-06,0.00016882701311260462,3.6527860164642334,10.0,0.0,7000.0,7000.0,7000.0,7000.0,32.766,32.766,32.766,32.766,32.766,2023.4420166015625,809.52490234375,29.761104583740234,,False,
1783648060.920813,2026-07-09T18:47:40,15350,20260709_184731,,,,,,arming,,,,,,,,,False,-0.020772315561771393,-0.01949300244450569,0.9976541996002197,0.020611196756362915,0.2812803387641907,-0.39749038219451904,7.0,0.0,39.0,16.0,0.016,-0.0005608503124676645,-0.0012010840000584722,0.01650490239262581,0.0010587141150608659,-0.004745088052004576,0.00884825736284256,-1.206260085105896,-1.143556833267212,-0.018655672669410706,0.01640855148434639,0.008311173878610134,2.7530263650987763e-06,0.00016882701311260462,3.647507429122925,10.0,0.0,7000.0,7000.0,7000.0,7000.0,32.766,32.766,32.766,32.766,32.766,2023.4420166015625,809.52490234375,29.761104583740234,,False,
1783648060.930981,2026-07-09T18:47:40,15369,20260709_184731,,,,,,arming,,,,,,,,,False,-0.0182343740016222,-0.021550025790929794,1.0045452117919922,0.02544773742556572,0.3463650643825531,0.06596293300390244,3.0,0.0,42.0,16.0,0.016,-0.0005608503124676645,-0.0012010840000584722,0.01650490239262581,0.0010587141150608659,-0.004745088052004576,0.00884825736284256,-1.147042155265808,-1.1498076915740967,-0.017413044348359108,0.01640855148434639,0.008311173878610134,2.7530263650987763e-06,0.00016882701311260462,3.647507429122925,10.0,0.0,7000.0,7000.0,7000.0,7000.0,32.766,32.766,32.766,32.766,32.766,2023.45849609375,809.5232543945312,29.76531410217285,,False,
1783648060.9411528,2026-07-09T18:47:40,15379,20260709_184731,,,,,,arming,,,,,,,,,False,-0.014978165738284588,-0.020968209952116013,1.0037846565246582,-0.05215754732489586,0.4013417363166809,0.12526196241378784,1.0,0.0,45.0,16.0,0.016,8.602007437730208e-05,-0.0011805586982518435,0.01668664440512657,0.004576872102916241,-0.0044004181399941444,0.009014979004859924,-1.1529172658920288,-1.167555570602417,-0.0171803031116724,0.01640855148434639,0.008311173878610134,2.7530263650987763e-06,0.00016882701311260462,3.647507429122925,10.0,0.0,7000.0,7000.0,7000.0,7000.0,32.766,32.766,32.766,32.766,32.766,2023.45849609375,809.5232543945312,29.76531410217285,,False,
1783648060.9513116,2026-07-09T18:47:40,15390,20260709_184731,,,,,,arming,,,,,,,,,False,-0.01781429909169674,-0.019489888101816177,0.9986321926116943,-0.04805876687169075,-0.1708100438117981,0.21765471994876862,0.0,2.0,27.0,16.0,0.016,-0.0003336979425512254,-0.0013933844165876508,0.01687335968017578,0.002223404124379158,-0.005103854928165674,0.009154828265309334,-1.1529172658920288,-1.167555570602417,-0.0171803031116724,0.01678219996392727,0.009093942120671272,4.696505129686557e-06,0.00021882585133425891,3.647507429122925,10.0,0.0,7000.0,7000.0,7000.0,7000.0,32.766,32.766,32.766,32.766,32.766,2023.45849609375,809.5232543945312,29.76531410217285,,False,
1783648060.9614737,2026-07-09T18:47:40,15390,20260709_184731,,,,,,arming,,,,,,,,,False,-0.01781429909169674,-0.019489888101816177,0.9986321926116943,-0.04805876687169075,-0.1708100438117981,0.21765471994876862,0.0,2.0,27.0,16.0,0.016,-0.0003336979425512254,-0.0013933844165876508,0.01687335968017578,0.002223404124379158,-0.005103854928165674,0.009154828265309334,-1.1529172658920288,-1.167555570602417,-0.0171803031116724,0.01678219996392727,0.009093942120671272,4.696505129686557e-06,0.00021882585133425891,3.647507429122925,10.0,0.0,7000.0,7000.0,7000.0,7000.0,32.766,32.766,32.766,32.766,32.766,2023.45849609375,809.5232543945312,29.76531410217285,,False,
1783648060.9716365,2026-07-09T18:47:40,15390,20260709_184731,,,,,,arming,,,,,,,,,False,-0.01781429909169674,-0.019489888101816177,0.9986321926116943,-0.04805876687169075,-0.1708100438117981,0.21765471994876862,0.0,2.0,27.0,16.0,0.016,-0.0003336979425512254,-0.0013933844165876508,0.01687335968017578,0.002223404124379158,-0.005103854928165674,0.009154828265309334,-1.1529172658920288,-1.167555570602417,-0.0171803031116724,0.01678219996392727,0.009093942120671272,4.696505129686557e-06,0.00021882585133425891,3.647507429122925,10.0,0.0,7000.0,7000.0,7000.0,7000.0,32.766,32.766,32.766,32.766,32.766,2023.45849609375,809.5232543945312,29.76531410217285,,False,
1783648060.9817905,2026-07-09T18:47:40,15399,20260709_184731,,,,,,arming,,,,,,,,,False,-0.020385202020406723,-0.021616989746689796,0.9971150159835815,-0.23411153256893158,-0.22892624139785767,-0.09767955541610718,0.0,0.0,24.0,17.0,0.017,-0.0003336979425512254,-0.0013933844165876508,0.01687335968017578,0.002223404124379158,-0.005103854928165674,0.009154828265309334,-1.1439037322998047,-1.149932622909546,-0.016707662492990494,0.01678219996392727,0.009093942120671272,4.696505129686557e-06,0.00021882585133425891,3.647507429122925,10.0,0.0,7000.0,7000.0,7000.0,7000.0,32.766,32.766,32.766,32.766,32.766,2023.45849609375,809.5232543945312,29.76531410217285,,False,
1783648060.9919653,2026-07-09T18:47:40,15427,20260709_184731,,,,,,arming,,,,,,,,,False,-0.016105422750115395,-0.0167937483638525,1.001769781112671,0.011967257596552372,-0.05696519464254379,-0.037445761263370514,0.0,4.0,44.0,17.0,0.017,-0.0005256348522379994,-0.0005351297440938652,0.017128054052591324,0.0011070511536672711,-0.0003295555361546576,0.00988179724663496,-1.1817619800567627,-1.1392428874969482,-0.015004007145762444,0.01678219996392727,0.009093942120671272,4.696505129686557e-06,0.00021882585133425891,3.647507429122925,10.0,0.0,7000.0,7000.0,7000.0,7000.0,32.766,32.766,32.766,32.766,32.766,2023.45849609375,809.5232543945312,29.76531410217285,,False,
1783648061.0021455,2026-07-09T18:47:41,15434,20260709_184731,,,,,,arming,,,,,,,,,False,-0.016105422750115395,-0.0167937483638525,1.001769781112671,0.011967257596552372,-0.05696519464254379,-0.037445761263370514,-1.0,0.0,43.0,17.0,0.017,-0.0014101775595918298,-0.0003032991080544889,0.017329981550574303,-0.0036441751290112734,0.0008231322863139212,0.010145965963602066,-1.1910768747329712,-1.1014463901519775,-0.013457901775836945,0.016462678089737892,0.005165733862668276,2.753022044998943e-06,0.00016882868658285588,3.647507429122925,10.0,0.0,7000.0,7000.0,7000.0,7000.0,32.766,32.766,32.766,32.766,32.766,2023.45849609375,809.5232543945312,29.76531410217285,,False,
1783648061.0123367,2026-07-09T18:47:41,15437,20260709_184731,,,,,,arming,,,,,,,,,False,-0.016016805544495583,-0.017868809401988983,0.9956363439559937,0.27394428849220276,0.13920538127422333,-0.3440876305103302,-1.0,0.0,43.0,17.0,0.017,-0.0014101775595918298,-0.0003032991080544889,0.017329981550574303,-0.0036441751290112734,0.0008231322863139212,0.010145965963602066,-1.1910768747329712,-1.1014463901519775,-0.013457901775836945,0.016462678089737892,0.005165733862668276,2.753022044998943e-06,0.00016882868658285588,3.647507429122925,10.0,0.0,7000.0,7000.0,7000.0,7000.0,32.766,32.766,32.766,32.766,32.766,2023.45849609375,809.5232543945312,29.76531410217285,,False,
1783648061.0225158,2026-07-09T18:47:41,15454,20260709_184731,,,,,,arming,,,,,,,,,False,-0.01487182080745697,-0.022280219942331314,0.9927785992622375,-0.16750244796276093,-0.49415266513824463,-0.11590956896543503,0.0,-3.0,39.0,15.0,0.015,-0.0007544767577201128,-0.0007691728533245623,0.016517654061317444,0.0005330875283107162,-0.001534538227133453,0.005228870082646608,-1.1704076528549194,-1.1296565532684326,-0.013710279017686844,0.016462678089737892,0.005165733862668276,2.753022044998943e-06,0.00016882868658285588,3.6527860164642334,10.0,0.0,7000.0,7000.0,7000.0,7000.0,32.766,32.766,32.766,32.766,32.766,2023.45849609375,809.5232543945312,29.76531410217285,,False,
1783648061.0326767,2026-07-09T18:47:41,15474,20260709_184731,,,,,,arming,,,,,,,,,False,-0.019641650840640068,-0.02457169070839882,1.0057207345962524,-0.13865160942077637,-0.05992022156715393,0.33199846744537354,4.0,2.0,44.0,15.0,0.015,-0.00030972485546953976,-0.0014150681672617793,0.016624880954623222,0.002783376956358552,-0.004537122789770365,0.0049051642417907715,-1.1419280767440796,-1.1402006149291992,-0.01502135768532753,0.016462678089737892,0.005165733862668276,2.753022044998943e-06,0.00016882868658285588,3.6527860164642334,10.0,0.0,7000.0,7000.0,7000.0,7000.0,32.766,32.766,32.766,32.766,32.766,2023.556884765625,809.5147705078125,29.7703857421875,,False,
1783648061.042838,2026-07-09T18:47:41,15484,20260709_184731,,,,,,arming,,,,,,,,,False,-0.021188020706176758,-0.025870677083730698,1.0028599500656128,-0.24944813549518585,0.2179846316576004,0.20857855677604675,-4.0,5.0,41.0,15.0,0.015,-0.00030972485546953976,-0.0014150681672617793,0.016624880954623222,0.002783376956358552,-0.004537122789770365,0.0049051642417907715,-1.1419280767440796,-1.1402006149291992,-0.01502135768532753,0.016696572303771973,0.005063017830252647,4.226829332765192e-06,0.00021782364638056606,3.6527860164642334,10.0,0.0,7000.0,7000.0,7000.0,7000.0,32.766,32.766,32.766,32.766,32.766,2023.556884765625,809.5147705078125,29.7703857421875,,False,
1783648061.0532293,2026-07-09T18:47:41,15490,20260709_184731,,,,,,arming,,,,,,,,,False,-0.023795317858457565,-0.01537544559687376,0.9976301789283752,-0.22099147737026215,-0.23252524435520172,-0.1236630231142044,4.0,-4.0,29.0,15.0,0.015,-0.0005120260757394135,-0.0014228697400540113,0.016748879104852676,0.0017187808407470584,-0.004935863893479109,0.00534100504592061,-1.1419280767440796,-1.1402006149291992,-0.01502135768532753,0.016696572303771973,0.005063017830252647,4.226829332765192e-06,0.00021782364638056606,3.6527860164642334,10.0,0.0,7000.0,7000.0,7000.0,7000.0,32.766,32.766,32.766,32.766,32.766,2023.556884765625,809.5147705078125,29.7703857421875,,False,
1783648061.0633981,2026-07-09T18:47:41,15492,20260709_184731,,,,,,arming,,,,,,,,,False,-0.023795317858457565,-0.01537544559687376,0.9976301789283752,-0.22099147737026215,-0.23252524435520172,-0.1236630231142044,4.0,-4.0,29.0,15.0,0.015,-0.0005120260757394135,-0.0014228697400540113,0.016748879104852676,0.0017187808407470584,-0.004935863893479109,0.00534100504592061,-1.1419280767440796,-1.1402006149291992,-0.01502135768532753,0.016696572303771973,0.005063017830252647,4.226829332765192e-06,0.00021782364638056606,3.6527860164642334,10.0,0.0,7000.0,7000.0,7000.0,7000.0,32.766,32.766,32.766,32.766,32.766,2023.556884765625,809.5147705078125,29.7703857421875,,False,
1783648061.0735724,2026-07-09T18:47:41,15499,20260709_184731,,,,,,arming,,,,,,,,,False,-0.021771656349301338,-0.017645815387368202,0.9964467883110046,0.09854981303215027,0.11028295010328293,0.04336182400584221,-6.0,-4.0,25.0,15.0,0.015,-0.0005120260757394135,-0.0014228697400540113,0.016748879104852676,0.0017187808407470584,-0.004935863893479109,0.00534100504592061,-1.1387263536453247,-1.134861946105957,-0.012823688797652721,0.016696572303771973,0.005063017830252647,4.226829332765192e-06,0.00021782364638056606,3.6527860164642334,10.0,0.0,7000.0,7000.0,7000.0,7000.0,32.766,32.766,32.766,32.766,32.766,2023.556884765625,809.5147705078125,29.7703857421875,,False,
1783648061.0837848,2026-07-09T18:47:41,15514,20260709_184731,,,,,,arming,,,,,,,,,False,-0.02187204919755459,-0.01595466211438179,1.0046017169952393,0.5041685700416565,0.1848732829093933,0.39042559266090393,6.0,6.0,39.0,15.0,0.015,-0.0009556962177157402,-0.0014369906857609749,0.016055714339017868,-0.0009882999584078789,-0.004959637299180031,0.0016410250682383776,-1.1393439769744873,-1.1121159791946411,-0.012418395839631557,0.016696572303771973,0.005063017830252647,4.226829332765192e-06,0.00021782364638056606,3.6527860164642334,10.0,0.0,7000.0,7000.0,7000.0,7000.0,32.766,32.766,32.766,32.766,32.766,2023.556884765625,809.5147705078125,29.7703857421875,,False,
1783648061.0941024,2026-07-09T18:47:41,15530,20260709_184731,,,,,,arming,,,,,,,,,False,-0.017909923568367958,-0.023157255724072456,1.0021615028381348,-0.19202929735183716,-0.12020469456911087,-0.09378615766763687,7.0,0.0,42.0,15.0,0.015,-0.0007440569461323321,-0.0012057704152539372,0.016126081347465515,-5.02251205034554e-05,-0.0033651613630354404,0.0024115273263305426,-1.1393439769744873,-1.1121159791946411,-0.012418395839631557,0.016696572303771973,0.005063017830252647,4.226829332765192e-06,0.00021782364638056606,3.6527860164642334,10.0,0.0,7000.0,7000.0,7000.0,7000.0,32.766,32.766,32.766,32.766,32.766,2023.556884765625,809.5147705078125,29.7703857421875,,False,
1783648061.1044705,2026-07-09T18:47:41,15530,20260709_184731,,,,,,arming,,,,,,,,,False,-0.017909923568367958,-0.023157255724072456,1.0021615028381348,-0.19202929735183716,-0.12020469456911087,-0.09378615766763687,7.0,0.0,42.0,15.0,0.015,-0.0007440569461323321,-0.0012057704152539372,0.016126081347465515,-5.02251205034554e-05,-0.0033651613630354404,0.0024115273263305426,-1.1393439769744873,-1.1121159791946411,-0.012418395839631557,0.016696572303771973,0.005063017830252647,4.226829332765192e-06,0.00021782364638056606,3.6527860164642334,10.0,0.0,7000.0,7000.0,7000.0,7000.0,32.766,32.766,32.766,32.766,32.766,2023.556884765625,809.5147705078125,29.7703857421875,,False,
1783648061.1147022,2026-07-09T18:47:41,15534,20260709_184731,,,,,,arming,,,,,,,,,False,-0.017909923568367958,-0.023157255724072456,1.0021615028381348,-0.19202929735183716,-0.12020469456911087,-0.09378615766763687,7.0,0.0,42.0,15.0,0.015,-0.0007440569461323321,-0.0012057704152539372,0.016126081347465515,-5.02251205034554e-05,-0.0033651613630354404,0.0024115273263305426,-1.1438068151474,-1.1195193529129028,-0.01208240445703268,0.016100559383630753,0.0025663201231509447,2.7530049919732846e-06,0.00016882688214536756,3.6527860164642334,10.0,0.0,7000.0,7000.0,7000.0,7000.0,32.766,32.766,32.766,32.766,32.766,2023.556884765625,809.5147705078125,29.7703857421875,,False,
1783648061.1249316,2026-07-09T18:47:41,15550,20260709_184731,,,,,,arming,,,,,,,,,False,-0.01557255256921053,-0.021957168355584145,1.0023300647735596,0.14265790581703186,0.23981770873069763,0.10189397633075714,3.0,3.0,41.0,16.0,0.016,-0.0005225315690040588,-0.0011992612853646278,0.01613338477909565,0.001190811744891107,-0.0030970112420618534,0.0026828893460333347,-1.1438068151474,-1.1195193529129028,-0.01208240445703268,0.016100559383630753,0.0025663201231509447,2.7530049919732846e-06,0.00016882688214536756,3.647507429122925,10.0,0.0,7000.0,7000.0,7000.0,7000.0,32.766,32.766,32.766,32.766,32.766,2023.556884765625,809.5147705078125,29.7703857421875,,False,
1783648061.135147,2026-07-09T18:47:41,15574,20260709_184731,,,,,,arming,,,,,,,,,False,-0.02284221723675728,-0.019907638430595398,1.002205491065979,-0.07697436213493347,0.09291376173496246,0.011707992292940617,7.0,0.0,37.0,16.0,0.016,-0.0005148815107531846,-0.0011905126739293337,0.01621171087026596,0.001329317456111312,-0.0035070846788585186,0.0028975054156035185,-1.138321042060852,-1.1274669170379639,-0.013507850468158722,0.016100559383630753,0.0025663201231509447,2.7530049919732846e-06,0.00016882688214536756,3.647507429122925,10.0,0.0,7000.0,7000.0,7000.0,7000.0,32.766,32.766,32.766,32.766,32.766,2023.562255859375,809.5140380859375,29.773113250732422,,False,
1783648061.1453059,2026-07-09T18:47:41,15587,20260709_184731,,,,,,arming,,,,,,,,,False,-0.021255362778902054,-0.022700192406773567,0.9977326989173889,-0.24052086472511292,0.031934477388858795,0.2504740357398987,-4.0,4.0,40.0,16.0,0.016,-0.0005148815107531846,-0.0011905126739293337,0.01621171087026596,0.001329317456111312,-0.0035070846788585186,0.0028975054156035185,-1.138321042060852,-1.1274669170379639,-0.013507850468158722,0.016254836693406105,0.003157772356644273,4.2267984099453315e-06,0.00021782507246825844,3.647507429122925,10.0,0.0,7000.0,7000.0,7000.0,7000.0,32.766,32.766,32.766,32.766,32.766,2023.562255859375,809.5140380859375,29.773113250732422,,False,
1783648061.1554625,2026-07-09T18:47:41,15592,20260709_184731,,,,,,arming,,,,,,,,,False,-0.021255362778902054,-0.022700192406773567,0.9977326989173889,-0.24052086472511292,0.031934477388858795,0.2504740357398987,2.0,-2.0,30.0,16.0,0.016,-0.0009514570119790733,-0.0007502801599912345,0.016286488622426987,-0.0007975588086992502,-0.0013874934520572424,0.00313203246332705,-1.138321042060852,-1.1274669170379639,-0.013507850468158722,0.016254836693406105,0.003157772356644273,4.2267984099453315e-06,0.00021782507246825844,3.6527860164642334,10.0,0.0,7000.0,7000.0,7000.0,7000.0,32.766,32.766,32.766,32.766,32.766,2023.562255859375,809.5140380859375,29.773113250732422,,False,
1783648061.165615,2026-07-09T18:47:41,15592,20260709_184731,,,,,,arming,,,,,,,,,False,-0.021255362778902054,-0.022700192406773567,0.9977326989173889,-0.24052086472511292,0.031934477388858795,0.2504740357398987,2.0,-2.0,30.0,16.0,0.016,-0.0009514570119790733,-0.0007502801599912345,0.016286488622426987,-0.0007975588086992502,-0.0013874934520572424,0.00313203246332705,-1.138321042060852,-1.1274669170379639,-0.013507850468158722,0.016254836693406105,0.003157772356644273,4.2267984099453315e-06,0.00021782507246825844,3.6527860164642334,10.0,0.0,7000.0,7000.0,7000.0,7000.0,32.766,32.766,32.766,32.766,32.766,2023.562255859375,809.5140380859375,29.773113250732422,,False,
1783648061.17577,2026-07-09T18:47:41,15597,20260709_184731,,,,,,arming,,,,,,,,,False,-0.017431043088436127,-0.02177925780415535,1.0025346279144287,-0.05574691295623779,0.07515104860067368,0.19322697818279266,2.0,-2.0,30.0,16.0,0.016,-0.0009514570119790733,-0.0007502801599912345,0.016286488622426987,-0.0007975588086992502,-0.0013874934520572424,0.00313203246332705,-1.1568423509597778,-1.1054714918136597,-0.013335787691175938,0.016254836693406105,0.003157772356644273,4.2267984099453315e-06,0.00021782507246825844,3.6527860164642334,10.0,0.0,7000.0,7000.0,7000.0,7000.0,32.766,32.766,32.766,32.766,32.766,2023.562255859375,809.5140380859375,29.773113250732422,,False,
1783648061.1859956,2026-07-09T18:47:41,15617,20260709_184731,,,,,,arming,,,,,,,,,False,-0.02106739580631256,-0.023715049028396606,0.9987781047821045,-0.12455820292234421,0.15350541472434998,-0.03667735680937767,0.0,4.0,42.0,15.0,0.015,-0.00160338229034096,-0.0005510178161785007,0.015740497037768364,-0.004570117685943842,-0.0010354333790019155,0.0002861225511878729,-1.165948748588562,-1.0797796249389648,-0.011554226279258728,0.016254836693406105,0.003157772356644273,4.2267984099453315e-06,0.00021782507246825844,3.6527860164642334,10.0,0.0,7000.0,7000.0,7000.0,7000.0,32.766,32.766,32.766,32.766,32.766,2023.562255859375,809.5140380859375,29.773113250732422,,False,
1783648061.1961658,2026-07-09T18:47:41,15629,20260709_184731,,,,,,arming,,,,,,,,,False,-0.02019203081727028,-0.024322262033820152,1.0004003047943115,0.09232796728610992,-0.17927725613117218,0.07082043588161469,6.0,-1.0,43.0,15.0,0.015,-0.00160338229034096,-0.0005510178161785007,0.015740497037768364,-0.004570117685943842,-0.0010354333790019155,0.0002861225511878729,-1.165948748588562,-1.0797796249389648,-0.011554226279258728,0.016254836693406105,0.003157772356644273,4.2267984099453315e-06,0.00021782507246825844,3.6527860164642334,10.0,0.0,7000.0,7000.0,7000.0,7000.0,32.766,32.766,32.766,32.766,32.766,2023.562255859375,809.5140380859375,29.773113250732422,,False,
1783648061.2063181,2026-07-09T18:47:41,15629,20260709_184731,,,,,,arming,,,,,,,,,False,-0.02019203081727028,-0.024322262033820152,1.0004003047943115,0.09232796728610992,-0.17927725613117218,0.07082043588161469,6.0,-1.0,43.0,15.0,0.015,-0.00160338229034096,-0.0005510178161785007,0.015740497037768364,-0.004570117685943842,-0.0010354333790019155,0.0002861225511878729,-1.165948748588562,-1.0797796249389648,-0.011554226279258728,0.016254836693406105,0.003157772356644273,4.2267984099453315e-06,0.00021782507246825844,3.6527860164642334,10.0,0.0,7000.0,7000.0,7000.0,7000.0,32.766,32.766,32.766,32.766,32.766,2023.562255859375,809.5140380859375,29.773113250732422,,False,
1783648061.2164657,2026-07-09T18:47:41,15630,20260709_184731,,,,,,arming,,,,,,,,,False,-0.02019203081727028,-0.024322262033820152,1.0004003047943115,0.09232796728610992,-0.17927725613117218,0.07082043588161469,6.0,-1.0,43.0,15.0,0.015,-0.0007450033444911242,-0.00118622079025954,0.01576247252523899,0.00017140063573606312,-0.00435576681047678,0.0005072284839116037,-1.165948748588562,-1.0797796249389648,-0.011554226279258728,0.016254836693406105,0.003157772356644273,4.2267984099453315e-06,0.00021782507246825844,3.6527860164642334,10.0,0.0,7000.0,7000.0,7000.0,7000.0,32.766,32.766,32.766,32.766,32.766,2023.562255859375,809.5140380859375,29.773113250732422,,False,
1783648061.2266278,2026-07-09T18:47:41,15650,20260709_184731,,,,,,arming,,,,,,,,,False,-0.017673101276159286,-0.019174814224243164,1.0027503967285156,0.12592849135398865,-0.330130398273468,-0.0894676148891449,-4.0,3.0,38.0,15.0,0.015,-0.0005358532071113586,0.0002888047893065959,0.015447854995727539,0.001167025649920106,0.003342418232932687,-0.0008879207889549434,-1.1344664096832275,-1.117951512336731,-0.0119479363784194,0.015451991930603981,-0.0009693673928268254,2.753029320956557e-06,0.00016882391355466098,3.647507429122925,10.0,0.0,7000.0,7000.0,7000.0,7000.0,32.766,32.766,32.766,32.766,32.766,2023.562255859375,809.5140380859375,29.773113250732422,,False,
1783648061.2367814,2026-07-09T18:47:41,15670,20260709_184731,,,,,,arming,,,,,,,,,False,-0.020290635526180267,-0.02023944817483425,0.9949246048927307,0.10790907591581345,-0.107115238904953,-0.10729523748159409,-7.0,0.0,44.0,15.0,0.015,-0.0007426912197843194,6.653361924691126e-05,0.015463195741176605,0.00024413804931100458,0.002306971000507474,-0.0005396826309151947,-1.19258451461792,-1.1191418170928955,-0.012878608889877796,0.015451991930603981,-0.0009693673928268254,2.753029320956557e-06,0.00016882391355466098,3.647507429122925,10.0,0.0,7000.0,7000.0,7000.0,7000.0,32.766,32.766,32.766,32.766,32.766,2023.5240478515625,809.5174560546875,29.779537200927734,,False,
1783648061.2470899,2026-07-09T18:47:41,15689,20260709_184731,,,,,,arming,,,,,,,,,False,-0.016353759914636612,-0.023758886381983757,1.0020092725753784,-0.03589895740151405,0.4736439883708954,0.19087067246437073,0.0,0.0,28.0,15.0,0.015,-0.0007426912197843194,6.653361924691126e-05,0.015463195741176605,0.00024413804931100458,0.002306971000507474,-0.0005396826309151947,-1.1806894540786743,-1.1102036237716675,-0.01203545555472374,0.015461503528058529,-0.000707831815816462,4.22683888245956e-06,0.00021782481053378433,3.647507429122925,10.0,0.0,7000.0,7000.0,7000.0,7000.0,32.766,32.766,32.766,32.766,32.766,2023.5240478515625,809.5174560546875,29.779537200927734,,False,
