pc_time_s,pc_time_iso,cf_time_ms,session_id,motif_id,motif_type,motif_phase,rep_index,motif_param_json,flight_phase,cmd_vx_m_s,cmd_vy_m_s,cmd_yaw_rate_deg_s,cmd_height_m,cmd_vx_raw_m_s,cmd_vy_raw_m_s,cmd_yaw_rate_raw_deg_s,cmd_height_raw_m,safety_override_active,acc_x_g,acc_y_g,acc_z_g,gyro_x_dps,gyro_y_dps,gyro_z_dps,flow_delta_x_px,flow_delta_y_px,flow_squal,zrange_mm,zrange_m,x_m,y_m,z_m,vx_m_s,vy_m_s,vz_m_s,roll_deg,pitch_deg,yaw_deg,kalman_state_z_m,kalman_state_pz,kalman_var_z,kalman_var_pz,battery_v,battery_level_pct,pm_state,motor_m1,motor_m2,motor_m3,motor_m4,range_front_m,range_back_m,range_left_m,range_right_m,range_up_m,baro_asl_m,baro_pressure_hpa,baro_temp_c,safety_flag,should_land,event
1783642983.0407522,2026-07-09T17:23:03,,20260709_172258,,,,,,ground_idle,,,,,,,,,False,,,,,,,,,,,,,,,,,,,,,,,,,,,,,,,,,,,,,,,,,False,
1783642983.051092,2026-07-09T17:23:03,13519,20260709_172258,,,,,,ground_idle,,,,,,,,,False,-0.004016478080302477,-0.013999542221426964,1.0002820491790771,0.05187586694955826,-0.1618494987487793,0.2769440710544586,,,,,,,,,,,,,,,,,,,,,,,,,,,,,,,,,,,False,
1783642983.0612063,2026-07-09T17:23:03,13529,20260709_172258,,,,,,ground_idle,,,,,,,,,False,-0.0025260928086936474,-0.013336334377527237,0.9988034963607788,0.017095355316996574,-0.1152484118938446,-0.1594676971435547,-2.0,0.0,100.0,13.0,0.013,,,,,,,,,,,,,,,,,,,,,,,,,,,,,,False,
1783642983.0713036,2026-07-09T17:23:03,13539,20260709_172258,,,,,,ground_idle,,,,,,,,,False,-0.004597798455506563,-0.011737557128071785,1.0007277727127075,-0.3099386692047119,-0.2273135781288147,-0.06280411034822464,1.0,1.0,93.0,13.0,0.013,0.000601622392423451,-0.0005308385589160025,0.01837798021733761,0.0026003646198660135,-0.0035147250164300203,-0.01339162141084671,-0.6578539609909058,-0.28196385502815247,0.10234131664037704,,,,,,,,,,,,,,,,,,,,,False,
1783642983.081407,2026-07-09T17:23:03,13549,20260709_172258,,,,,,ground_idle,,,,,,,,,False,-0.0032266778871417046,-0.013257183134555817,0.9993642568588257,-0.18979133665561676,-0.3820195496082306,0.14994801580905914,0.0,-4.0,84.0,28.0,0.028,0.000601622392423451,-0.0005308385589160025,0.01837798021733761,0.0026003646198660135,-0.0035147250164300203,-0.01339162141084671,-0.6578539609909058,-0.28196385502815247,0.10234131664037704,,,,,,,,,,,,,,,,,,,,,False,
1783642983.0915074,2026-07-09T17:23:03,13559,20260709_172258,,,,,,ground_idle,,,,,,,,,False,-0.0014181386213749647,-0.012122307904064655,0.9996273517608643,0.08362019062042236,-0.017614535987377167,-0.045507751405239105,-1.0,3.0,88.0,28.0,0.028,0.0005972397048026323,-0.0002571227087173611,0.02232157252728939,0.0026951399631798267,-0.0019224726129323244,0.006660149898380041,-0.6699029207229614,-0.277643084526062,0.10232837498188019,,,,,,,,,,,,,,,,,,,,,False,
1783642983.1016784,2026-07-09T17:23:03,13569,20260709_172258,,,,,,ground_idle,,,,,,,,,False,-0.002470720559358597,-0.01263834722340107,0.9999536275863647,0.2750770151615143,0.07394395023584366,0.09810855984687805,0.0,-3.0,99.0,28.0,0.028,0.0005972397048026323,-0.0002571227087173611,0.02232157252728939,0.0026951399631798267,-0.0019224726129323244,0.006660149898380041,-0.6699029207229614,-0.277643084526062,0.10232837498188019,0.0223916694521904,0.006565832998603582,3.413445710975793e-06,0.00019774539396166801,3.9536657333374023,60.0,0.0,0.0,0.0,0.0,0.0,32.766,32.766,0.289,0.401,2.85,,,,,False,
1783642983.1118503,2026-07-09T17:23:03,13582,20260709_172258,,,,,,ground_idle,,,,,,,,,False,-0.004956800024956465,-0.013290236704051495,1.0004637241363525,0.0733279287815094,-0.26406601071357727,0.0341622456908226,-1.0,0.0,102.0,28.0,0.028,-9.022247104439884e-05,-0.0007561073871329427,0.022457800805568695,-0.0005629051011055708,-0.0044255503453314304,0.006607096642255783,-0.6620010137557983,-0.2457766830921173,0.10226690769195557,0.0223916694521904,0.006565832998603582,3.413445710975793e-06,0.00019774539396166801,3.9536657333374023,60.0,0.0,0.0,0.0,0.0,0.0,32.766,32.766,0.289,0.401,2.85,,,,,False,
1783642983.1219661,2026-07-09T17:23:03,13592,20260709_172258,,,,,,ground_idle,,,,,,,,,False,-0.004696482326835394,-0.010998659767210484,0.9976655840873718,0.19557596743106842,0.39843082427978516,0.1874689906835556,0.0,-3.0,85.0,16.0,0.016,-9.022247104439884e-05,-0.0007561073871329427,0.022457800805568695,-0.0005629051011055708,-0.0044255503453314304,0.006607096642255783,-0.6620010137557983,-0.2457766830921173,0.10226690769195557,0.0223916694521904,0.006565832998603582,3.413445710975793e-06,0.00019774539396166801,3.9536657333374023,60.0,0.0,0.0,0.0,0.0,0.0,32.766,32.766,0.289,0.401,2.85,,,,,False,
1783642983.1320837,2026-07-09T17:23:03,13599,20260709_172258,,,,,,ground_idle,,,,,,,,,False,-0.0025204159319400787,-0.014517350122332573,0.9994112253189087,0.19037427008152008,0.1994573175907135,0.05568409711122513,0.0,-3.0,85.0,16.0,0.016,-0.000102567246358376,-0.0005016149370931089,0.019768545404076576,-0.0006720720557495952,-0.002997561125084758,-0.008216212503612041,-0.6617956757545471,-0.24104169011116028,0.10291165858507156,0.0223916694521904,0.006565832998603582,3.413445710975793e-06,0.00019774539396166801,3.9536657333374023,60.0,0.0,0.0,0.0,0.0,0.0,32.766,32.766,0.289,0.401,2.85,,,,,False,
1783642983.1422324,2026-07-09T17:23:03,13612,20260709_172258,,,,,,ground_idle,,,,,,,,,False,-0.003802083432674408,-0.013572380878031254,1.0004832744598389,0.05170682072639465,-0.2446361482143402,-0.28498125076293945,1.0,1.0,93.0,16.0,0.016,-0.000102567246358376,-0.0005016149370931089,0.019768545404076576,-0.0006720720557495952,-0.002997561125084758,-0.008216212503612041,-0.6617956757545471,-0.24104169011116028,0.10291165858507156,0.0223916694521904,0.006565832998603582,3.413445710975793e-06,0.00019774539396166801,3.9536657333374023,60.0,0.0,0.0,0.0,0.0,0.0,32.766,32.766,0.289,0.401,2.85,,,,,False,
1783642983.1523683,2026-07-09T17:23:03,13619,20260709_172258,,,,,,ground_idle,,,,,,,,,False,-0.004957625642418861,-0.012818947434425354,1.0015099048614502,-0.016780555248260498,0.09853110462427139,-0.06384637206792831,1.0,1.0,93.0,16.0,0.016,0.0007748380303382874,-0.0002793701132759452,0.019606586545705795,0.00424641277641058,-0.0017885228153318167,-0.008365074172616005,-0.670079231262207,-0.28055495023727417,0.1030193418264389,0.019606586545705795,-0.008364648558199406,3.3152596188301686e-06,0.00019257461826782674,3.9536657333374023,60.0,0.0,0.0,0.0,0.0,0.0,32.766,32.766,0.296,32.766,2.854,,,,,False,
1783642983.1625051,2026-07-09T17:23:03,13632,20260709_172258,,,,,,ground_idle,,,,,,,,,False,-0.004535739775747061,-0.0117202028632164,0.9997169375419617,-0.19901233911514282,-0.1456652581691742,0.15955065190792084,1.0,5.0,89.0,16.0,0.016,0.0007748380303382874,-0.0002793701132759452,0.019606586545705795,0.00424641277641058,-0.0017885228153318167,-0.008365074172616005,-0.670079231262207,-0.28055495023727417,0.1030193418264389,0.019606586545705795,-0.008364648558199406,3.3152596188301686e-06,0.00019257461826782674,3.9536657333374023,60.0,0.0,0.0,0.0,0.0,0.0,32.766,32.766,0.296,32.766,2.854,2018.61376953125,809.9537963867188,34.77598190307617,,False,
1783642983.1726851,2026-07-09T17:23:03,13642,20260709_172258,,,,,,ground_idle,,,,,,,,,False,-0.004447768907994032,-0.011559446342289448,0.9996359348297119,0.01339542306959629,0.08510755747556686,0.19243238866329193,-1.0,0.0,92.0,27.0,0.027,-0.00031874715932644904,-0.00027986918576061726,0.01945352554321289,-0.0017342637293040752,-0.0017307064263150096,-0.008007299154996872,-0.6705029606819153,-0.233444482088089,0.10339067876338959,0.019606586545705795,-0.008364648558199406,3.3152596188301686e-06,0.00019257461826782674,3.9536657333374023,60.0,0.0,0.0,0.0,0.0,0.0,32.766,32.766,0.296,32.766,2.854,2018.61376953125,809.9537963867188,34.77598190307617,,False,
1783642983.1828492,2026-07-09T17:23:03,13652,20260709_172258,,,,,,ground_idle,,,,,,,,,False,-0.003329433500766754,-0.009744229726493359,1.001020073890686,-0.4659915268421173,-0.23697753250598907,0.061457131057977676,1.0,-5.0,97.0,27.0,0.027,-0.00031874715932644904,-0.00027986918576061726,0.01945352554321289,-0.0017342637293040752,-0.0017307064263150096,-0.008007299154996872,-0.6705029606819153,-0.233444482088089,0.10339067876338959,0.019606586545705795,-0.008364648558199406,3.3152596188301686e-06,0.00019257461826782674,3.9536657333374023,60.0,0.0,0.0,0.0,0.0,0.0,32.766,32.766,0.296,32.766,2.854,2018.61376953125,809.9537963867188,34.77598190307617,,False,
1783642983.1929915,2026-07-09T17:23:03,13662,20260709_172258,,,,,,ground_idle,,,,,,,,,False,-0.0033960312139242887,-0.013935241848230362,0.9997809529304504,0.22074583172798157,-0.21908235549926758,-0.11875002086162567,0.0,4.0,93.0,27.0,0.027,-7.978143548825756e-05,-0.0004611440235748887,0.022601764649152756,-0.0005547500913962722,-0.0023913283366709948,0.00773124024271965,-0.6652655601501465,-0.24064521491527557,0.105458565056324,0.019606586545705795,-0.008364648558199406,3.3152596188301686e-06,0.00019257461826782674,3.9536657333374023,60.0,0.0,0.0,0.0,0.0,0.0,32.766,32.766,0.296,32.766,2.854,2018.61376953125,809.9537963867188,34.77598190307617,,False,
1783642983.2031283,2026-07-09T17:23:03,13672,20260709_172258,,,,,,ground_idle,,,,,,,,,False,-0.0029261712916195393,-0.014460796490311623,0.9995359182357788,-0.013974820263683796,0.2271672934293747,0.1827867329120636,0.0,0.0,89.0,27.0,0.027,-7.978143548825756e-05,-0.0004611440235748887,0.022601764649152756,-0.0005547500913962722,-0.0023913283366709948,0.00773124024271965,-0.6652655601501465,-0.24064521491527557,0.105458565056324,0.022679414600133896,0.007768810261040926,3.41345185006503e-06,0.00019774632528424263,3.958944320678711,60.0,0.0,0.0,0.0,0.0,0.0,32.766,32.766,0.296,32.766,2.854,2018.61376953125,809.9537963867188,34.77598190307617,,False,
1783642983.2132683,2026-07-09T17:23:03,13682,20260709_172258,,,,,,ground_idle,,,,,,,,,False,-0.004117788281291723,-0.012530110776424408,0.9985761046409607,0.061593491584062576,-0.12277006357908249,-0.02853924036026001,-1.0,1.0,102.0,27.0,0.027,-8.92676689545624e-05,-0.0005101156421005726,0.022757165133953094,-0.0003940686583518982,-0.00263544381596148,0.00775121059268713,-0.6758421063423157,-0.22865310311317444,0.10591842234134674,0.022679414600133896,0.007768810261040926,3.41345185006503e-06,0.00019774632528424263,3.958944320678711,60.0,0.0,0.0,0.0,0.0,0.0,32.766,32.766,0.296,32.766,2.854,2018.61376953125,809.9537963867188,34.77598190307617,,False,
1783642983.223447,2026-07-09T17:23:03,13692,20260709_172258,,,,,,ground_idle,,,,,,,,,False,-0.0052373409271240234,-0.01193180214613676,1.0001342296600342,-0.05574588477611542,-0.11851829290390015,-0.1756637692451477,0.0,-4.0,87.0,15.0,0.015,-8.92676689545624e-05,-0.0005101156421005726,0.022757165133953094,-0.0003940686583518982,-0.00263544381596148,0.00775121059268713,-0.6758421063423157,-0.22865310311317444,0.10591842234134674,0.022679414600133896,0.007768810261040926,3.41345185006503e-06,0.00019774632528424263,3.958944320678711,60.0,0.0,0.0,0.0,0.0,0.0,32.766,32.766,0.296,32.766,2.854,2018.61376953125,809.9537963867188,34.77598190307617,,False,
1783642983.2336297,2026-07-09T17:23:03,13702,20260709_172258,,,,,,ground_idle,,,,,,,,,False,-0.0063425456173717976,-0.012857399880886078,0.9999968409538269,0.2849431335926056,0.42323625087738037,-0.13837705552577972,0.0,-1.0,88.0,15.0,0.015,0.0007920259376987815,-0.00028438647859729826,0.019519440829753876,0.004355656914412975,-0.0015026568435132504,-0.010199261829257011,-0.676228940486908,-0.27461951971054077,0.10530327260494232,0.022679414600133896,0.007768810261040926,3.41345185006503e-06,0.00019774632528424263,3.958944320678711,60.0,0.0,0.0,0.0,0.0,0.0,32.766,32.766,0.296,32.766,2.854,2018.61376953125,809.9537963867188,34.77598190307617,,False,
1783642983.2438126,2026-07-09T17:23:03,13712,20260709_172258,,,,,,ground_idle,,,,,,,,,False,-0.0044667781330645084,-0.012671194039285183,1.0015461444854736,0.03676516190171242,0.2608010470867157,0.14680778980255127,0.0,4.0,94.0,15.0,0.015,0.0007920259376987815,-0.00028438647859729826,0.019519440829753876,0.004355656914412975,-0.0015026568435132504,-0.010199261829257011,-0.676228940486908,-0.27461951971054077,0.10530327260494232,0.022679414600133896,0.007768810261040926,3.41345185006503e-06,0.00019774632528424263,3.958944320678711,60.0,0.0,0.0,0.0,0.0,0.0,32.766,32.766,0.296,32.766,2.854,2018.61376953125,809.9537963867188,34.77598190307617,,False,
1783642983.2539685,2026-07-09T17:23:03,13722,20260709_172258,,,,,,ground_idle,,,,,,,,,False,-0.003402152331545949,-0.012140670791268349,1.0005929470062256,0.024957315996289253,-0.21552589535713196,0.009871309623122215,0.0,0.0,93.0,15.0,0.015,-8.911143959267065e-05,-0.00030438302201218903,0.019322693347930908,-0.0007653564098291099,-0.0015685451216995716,-0.010066092945635319,-0.6719689965248108,-0.23949182033538818,0.10293206572532654,0.019322693347930908,-0.010086922906339169,3.315250523883151e-06,0.0001925775286508724,3.9536657333374023,60.0,0.0,0.0,0.0,0.0,0.0,32.766,32.766,0.293,0.395,2.853,2018.5372314453125,809.9606323242188,34.781158447265625,,False,
1783642983.264113,2026-07-09T17:23:03,13732,20260709_172258,,,,,,ground_idle,,,,,,,,,False,-0.005747705698013306,-0.01040346547961235,1.0002295970916748,-0.01724793016910553,0.03286950662732124,0.003541679820045829,1.0,1.0,91.0,15.0,0.015,-8.911143959267065e-05,-0.00030438302201218903,0.019322693347930908,-0.0007653564098291099,-0.0015685451216995716,-0.010066092945635319,-0.6719689965248108,-0.23949182033538818,0.10293206572532654,0.019322693347930908,-0.010086922906339169,3.315250523883151e-06,0.0001925775286508724,3.9536657333374023,60.0,0.0,0.0,0.0,0.0,0.0,32.766,32.766,0.293,0.395,2.853,2018.5372314453125,809.9606323242188,34.781158447265625,,False,
1783642983.2742636,2026-07-09T17:23:03,13742,20260709_172258,,,,,,ground_idle,,,,,,,,,False,-0.006517622619867325,-0.012384330853819847,1.0017505884170532,-0.0694582462310791,-0.15844324231147766,-0.08775851875543594,0.0,-1.0,100.0,29.0,0.029,-8.219914161600173e-05,-0.0005285455263219774,0.019124824553728104,-0.0005584892933256924,-0.0026180841960012913,-0.009855546988546848,-0.6636005640029907,-0.24336904287338257,0.10482627153396606,0.019322693347930908,-0.010086922906339169,3.315250523883151e-06,0.0001925775286508724,3.9536657333374023,60.0,0.0,0.0,0.0,0.0,0.0,32.766,32.766,0.293,0.395,2.853,2018.5372314453125,809.9606323242188,34.781158447265625,,False,
1783642983.2844036,2026-07-09T17:23:03,13752,20260709_172258,,,,,,ground_idle,,,,,,,,,False,-0.0058240219950675964,-0.011227523908019066,1.0012447834014893,0.06908369809389114,0.013939237222075462,-0.116940438747406,-1.0,0.0,86.0,29.0,0.029,-8.219914161600173e-05,-0.0005285455263219774,0.019124824553728104,-0.0005584892933256924,-0.0026180841960012913,-0.009855546988546848,-0.6636005640029907,-0.24336904287338257,0.10482627153396606,0.019322693347930908,-0.010086922906339169,3.315250523883151e-06,0.0001925775286508724,3.9536657333374023,60.0,0.0,0.0,0.0,0.0,0.0,32.766,32.766,0.293,0.395,2.853,2018.5372314453125,809.9606323242188,34.781158447265625,,False,
1783642983.294544,2026-07-09T17:23:03,13762,20260709_172258,,,,,,ground_idle,,,,,,,,,False,-0.004297916311770678,-0.01280971895903349,1.000526785850525,-0.07977937906980515,0.23386843502521515,-0.07857365906238556,1.0,0.0,97.0,29.0,0.029,-5.8363399148220196e-05,-0.0004851603298448026,0.023247506469488144,-0.0007780287996865809,-0.0021953522227704525,0.010919205844402313,-0.66404789686203,-0.2435419112443924,0.10592102259397507,0.019322693347930908,-0.010086922906339169,3.315250523883151e-06,0.0001925775286508724,3.9536657333374023,60.0,0.0,0.0,0.0,0.0,0.0,32.766,32.766,0.293,0.395,2.853,2018.5372314453125,809.9606323242188,34.781158447265625,,False,
1783642983.3047092,2026-07-09T17:23:03,13775,20260709_172258,,,,,,ground_idle,,,,,,,,,False,-0.0064231036230921745,-0.012216669507324696,1.000561237335205,-0.1898200660943985,-0.22851695120334625,0.10967361927032471,-1.0,1.0,91.0,29.0,0.029,-0.00029814383015036583,-0.00027458250406198204,0.023468349128961563,-0.0021023033186793327,-0.00099108403082937,0.011109517887234688,-0.66404789686203,-0.2435419112443924,0.10592102259397507,0.023357495665550232,0.01104156207293272,3.4134786801587325e-06,0.00019774750398937613,3.9536657333374023,60.0,0.0,0.0,0.0,0.0,0.0,32.766,32.766,0.293,0.395,2.853,2018.5372314453125,809.9606323242188,34.781158447265625,,False,
1783642983.3148692,2026-07-09T17:23:03,13782,20260709_172258,,,,,,ground_idle,,,,,,,,,False,-0.006309222429990768,-0.01282939501106739,0.9998719096183777,-0.1375969499349594,-0.08289321511983871,0.23219478130340576,0.0,-1.0,96.0,29.0,0.029,-0.00029814383015036583,-0.00027458250406198204,0.023468349128961563,-0.0021023033186793327,-0.00099108403082937,0.011109517887234688,-0.6730107665061951,-0.246964231133461,0.1050504520535469,0.023357495665550232,0.01104156207293272,3.4134786801587325e-06,0.00019774750398937613,3.9536657333374023,60.0,0.0,0.0,0.0,0.0,0.0,32.766,32.766,0.293,0.395,2.853,2018.5372314453125,809.9606323242188,34.781158447265625,,False,
1783642983.3250203,2026-07-09T17:23:03,13795,20260709_172258,,,,,,ground_idle,,,,,,,,,False,-0.006149513181298971,-0.011437363922595978,0.9975883960723877,0.10381921380758286,0.060158707201480865,-0.11737250536680222,0.0,-3.0,87.0,15.0,0.015,0.0006202480872161686,-0.0003045473131351173,0.019965510815382004,0.002292789751663804,-0.001171332085505128,-0.008489208295941353,-0.6730107665061951,-0.246964231133461,0.1050504520535469,0.023357495665550232,0.01104156207293272,3.4134786801587325e-06,0.00019774750398937613,3.9536657333374023,60.0,0.0,0.0,0.0,0.0,0.0,32.766,32.766,0.293,0.395,2.853,2018.5372314453125,809.9606323242188,34.781158447265625,,False,
1783642983.3351634,2026-07-09T17:23:03,13802,20260709_172258,,,,,,ground_idle,,,,,,,,,False,-0.00413514906540513,-0.010726934298872948,0.9985088109970093,0.10998013615608215,0.2633724808692932,-0.07921182364225388,0.0,0.0,87.0,15.0,0.015,0.0006202480872161686,-0.0003045473131351173,0.019965510815382004,0.002292789751663804,-0.001171332085505128,-0.008489208295941353,-0.6735860109329224,-0.2753124535083771,0.10550224781036377,0.023357495665550232,0.01104156207293272,3.4134786801587325e-06,0.00019774750398937613,3.9536657333374023,60.0,0.0,0.0,0.0,0.0,0.0,32.766,32.766,0.293,0.395,2.853,2018.5372314453125,809.9606323242188,34.781158447265625,,False,
1783642983.345316,2026-07-09T17:23:03,13815,20260709_172258,,,,,,ground_idle,,,,,,,,,False,-0.004769398830831051,-0.011943698860704899,0.9989668130874634,0.366220623254776,0.016819864511489868,0.1504896581172943,1.0,0.0,97.0,15.0,0.015,0.0008482604753226042,-0.00030194962164387107,0.01979215443134308,0.003292116802185774,-0.0008923880523070693,-0.008785727433860302,-0.6735860109329224,-0.2753124535083771,0.10550224781036377,0.023357495665550232,0.01104156207293272,3.4134786801587325e-06,0.00019774750398937613,3.9536657333374023,60.0,0.0,0.0,0.0,0.0,0.0,32.766,32.766,0.293,0.395,2.853,2018.5372314453125,809.9606323242188,34.781158447265625,,False,
1783642983.355462,2026-07-09T17:23:03,13822,20260709_172258,,,,,,ground_idle,,,,,,,,,False,-0.006451033055782318,-0.01285591721534729,1.0003764629364014,0.03900107741355896,-0.10895679891109467,0.12820987403392792,-1.0,-1.0,99.0,15.0,0.015,0.0008482604753226042,-0.00030194962164387107,0.01979215443134308,0.003292116802185774,-0.0008923880523070693,-0.008785727433860302,-0.6726966500282288,-0.28487056493759155,0.10316873341798782,0.01979215443134308,-0.008779219351708889,3.315270078019239e-06,0.0001925780379679054,3.9536657333374023,60.0,0.0,0.0,0.0,0.0,0.0,32.766,32.766,32.766,0.405,2.845,2018.6793212890625,809.9483642578125,34.78159713745117,,False,
1783642983.3657658,2026-07-09T17:23:03,13835,20260709_172258,,,,,,ground_idle,,,,,,,,,False,-0.003975830972194672,-0.012306335382163525,0.9999241828918457,-0.3601785898208618,-0.4133793115615845,0.11881967633962631,0.0,4.0,91.0,15.0,0.015,-7.589457527501509e-05,-0.00031046883668750525,0.019622504711151123,-0.0018644890515133739,-0.001045806217007339,-0.008742515929043293,-0.6726966500282288,-0.28487056493759155,0.10316873341798782,0.01979215443134308,-0.008779219351708889,3.315270078019239e-06,0.0001925780379679054,3.9536657333374023,60.0,0.0,0.0,0.0,0.0,0.0,32.766,32.766,32.766,0.405,2.845,2018.6793212890625,809.9483642578125,34.78159713745117,,False,
1783642983.375944,2026-07-09T17:23:03,13842,20260709_172258,,,,,,ground_idle,,,,,,,,,False,-0.005711849313229322,-0.012923704460263252,0.9975549578666687,-0.20864731073379517,0.09612585604190826,-0.12638936936855316,-1.0,-1.0,97.0,29.0,0.029,-7.589457527501509e-05,-0.00031046883668750525,0.019622504711151123,-0.0018644890515133739,-0.001045806217007339,-0.008742515929043293,-0.6821069121360779,-0.2541094720363617,0.10385198891162872,0.01979215443134308,-0.008779219351708889,3.315270078019239e-06,0.0001925780379679054,3.9536657333374023,60.0,0.0,0.0,0.0,0.0,0.0,32.766,32.766,32.766,0.405,2.845,2018.6793212890625,809.9483642578125,34.78159713745117,,False,
1783642983.3860853,2026-07-09T17:23:03,13856,20260709_172258,,,,,,ground_idle,,,,,,,,,False,-0.004226977005600929,-0.011652878485620022,0.9976643919944763,0.06804937869310379,0.1206330955028534,-0.09383281320333481,1.0,-3.0,95.0,29.0,0.029,-2.612671050883364e-05,-0.00047713369713164866,0.02355089783668518,-0.0018161959014832973,-0.0020665910560637712,0.010432901792228222,-0.6652562022209167,-0.2425161749124527,0.10439959913492203,0.01979215443134308,-0.008779219351708889,3.315270078019239e-06,0.0001925780379679054,3.9536657333374023,60.0,0.0,0.0,0.0,0.0,0.0,32.766,32.766,32.766,0.405,2.845,2018.6793212890625,809.9483642578125,34.78159713745117,,False,
1783642983.3962228,2026-07-09T17:23:03,13862,20260709_172258,,,,,,ground_idle,,,,,,,,,False,-0.004172293469309807,-0.01031456794589758,0.9983055591583252,0.33466172218322754,0.16866177320480347,0.12397994101047516,1.0,4.0,96.0,29.0,0.029,-2.612671050883364e-05,-0.00047713369713164866,0.02355089783668518,-0.0018161959014832973,-0.0020665910560637712,0.010432901792228222,-0.6652562022209167,-0.2425161749124527,0.10439959913492203,0.01979215443134308,-0.008779219351708889,3.315270078019239e-06,0.0001925780379679054,3.9536657333374023,60.0,0.0,0.0,0.0,0.0,0.0,32.766,32.766,32.766,0.405,2.845,2018.6793212890625,809.9483642578125,34.78159713745117,,False,
1783642983.406369,2026-07-09T17:23:03,13875,20260709_172258,,,,,,ground_idle,,,,,,,,,False,-0.00442130584269762,-0.01031542383134365,0.998018205165863,-0.014963635243475437,0.10774245113134384,0.01751047745347023,0.0,-3.0,95.0,29.0,0.029,0.0006566388765349984,-0.000490930920932442,0.023758279159665108,0.0018018493428826332,-0.0017382053192704916,0.010068785399198532,-0.6652562022209167,-0.2425161749124527,0.10439959913492203,0.023656602948904037,0.010253643617033958,3.413473223190522e-06,0.0001977485662791878,3.9536657333374023,60.0,0.0,0.0,0.0,0.0,0.0,0.378,32.766,32.766,0.405,2.845,2018.6793212890625,809.9483642578125,34.78159713745117,,False,
1783642983.4165773,2026-07-09T17:23:03,13882,20260709_172258,,,,,,ground_idle,,,,,,,,,False,-0.002049649367108941,-0.010436969809234142,1.0014103651046753,-0.11045043170452118,-0.23818537592887878,-0.005346464458853006,0.0,0.0,95.0,29.0,0.029,0.0006566388765349984,-0.000490930920932442,0.023758279159665108,0.0018018493428826332,-0.0017382053192704916,0.010068785399198532,-0.6619901061058044,-0.2749022841453552,0.10379959642887115,0.023656602948904037,0.010253643617033958,3.413473223190522e-06,0.0001977485662791878,3.9536657333374023,60.0,0.0,0.0,0.0,0.0,0.0,0.378,32.766,32.766,0.405,2.845,2018.6793212890625,809.9483642578125,34.78159713745117,,False,
1783642983.426924,2026-07-09T17:23:03,13895,20260709_172258,,,,,,ground_idle,,,,,,,,,False,-0.0018349537858739495,-0.011845017783343792,1.0000847578048706,0.220800518989563,0.05890140309929848,0.2302245795726776,-1.0,3.0,82.0,14.0,0.014,0.0008647931972518563,-0.0002975226962007582,0.019693180918693542,0.003306377213448286,-0.00034479552414268255,-0.012193020433187485,-0.6619901061058044,-0.2749022841453552,0.10379959642887115,0.023656602948904037,0.010253643617033958,3.413473223190522e-06,0.0001977485662791878,3.9536657333374023,60.0,0.0,0.0,0.0,0.0,0.0,0.378,32.766,32.766,0.405,2.845,2018.6793212890625,809.9483642578125,34.78159713745117,,False,
1783642983.4370718,2026-07-09T17:23:03,13902,20260709_172258,,,,,,ground_idle,,,,,,,,,False,-0.0022497056052088737,-0.012545387260615826,0.9985548853874207,0.0170816108584404,0.2403009831905365,0.06988956034183502,0.0,-4.0,85.0,14.0,0.014,0.0008647931972518563,-0.0002975226962007582,0.019693180918693542,0.003306377213448286,-0.00034479552414268255,-0.012193020433187485,-0.6734298467636108,-0.28614237904548645,0.10317108780145645,0.023656602948904037,0.010253643617033958,3.413473223190522e-06,0.0001977485662791878,3.9536657333374023,60.0,0.0,0.0,0.0,0.0,0.0,0.378,32.766,32.766,0.405,2.845,2018.6793212890625,809.9483642578125,34.78159713745117,,False,
1783642983.4472282,2026-07-09T17:23:03,13916,20260709_172258,,,,,,ground_idle,,,,,,,,,False,-0.0024054935202002525,-0.015339542180299759,0.9998912215232849,0.09075022488832474,0.0769878700375557,-0.07675588130950928,1.0,3.0,94.0,14.0,0.014,0.00017720948380883783,-0.0002988835040014237,0.01945262774825096,4.894322046311572e-05,-0.0005049851606599987,-0.012329943478107452,-0.6733789443969727,-0.25723639130592346,0.10292196273803711,0.023656602948904037,0.010253643617033958,3.413473223190522e-06,0.0001977485662791878,3.9536657333374023,60.0,0.0,0.0,0.0,0.0,0.0,0.378,32.766,32.766,0.405,2.845,2018.6793212890625,809.9483642578125,34.78159713745117,,False,
1783642983.457371,2026-07-09T17:23:03,13922,20260709_172258,,,,,,ground_idle,,,,,,,,,False,-0.006044119130820036,-0.014501367695629597,0.9982441067695618,-0.05758954584598541,0.14494574069976807,-0.15087789297103882,-1.0,0.0,104.0,14.0,0.014,0.00017720948380883783,-0.0002988835040014237,0.01945262774825096,4.894322046311572e-05,-0.0005049851606599987,-0.012329943478107452,-0.6733789443969727,-0.25723639130592346,0.10292196273803711,0.01945262774825096,-0.012334712781012058,3.3152575724670896e-06,0.00019257878011558205,3.9483871459960938,60.0,0.0,0.0,0.0,0.0,0.0,0.378,32.766,32.766,0.403,2.862,2018.64111328125,809.9515380859375,34.788455963134766,,False,
1783642983.467511,2026-07-09T17:23:03,13936,20260709_172258,,,,,,ground_idle,,,,,,,,,False,-0.003915837034583092,-0.013045630417764187,0.9985419511795044,-0.16477319598197937,-0.04454462230205536,0.12926632165908813,1.0,1.0,91.0,14.0,0.014,-0.000708388804923743,-8.047591109061614e-05,0.01920488476753235,-0.004627053160220385,0.00018754681514110416,-0.012499724514782429,-0.6826703548431396,-0.22158695757389069,0.10317985713481903,0.01945262774825096,-0.012334712781012058,3.3152575724670896e-06,0.00019257878011558205,3.9483871459960938,60.0,0.0,0.0,0.0,0.0,0.0,0.378,32.766,32.766,0.403,2.862,2018.64111328125,809.9515380859375,34.788455963134766,,False,
1783642983.4776754,2026-07-09T17:23:03,13942,20260709_172258,,,,,,ground_idle,,,,,,,,,False,-0.004006559029221535,-0.012480190023779869,1.0026901960372925,-0.1229964941740036,0.07630804181098938,0.050987690687179565,-2.0,3.0,101.0,27.0,0.027,-0.000708388804923743,-8.047591109061614e-05,0.01920488476753235,-0.004627053160220385,0.00018754681514110416,-0.012499724514782429,-0.6826703548431396,-0.22158695757389069,0.10317985713481903,0.01945262774825096,-0.012334712781012058,3.3152575724670896e-06,0.00019257878011558205,3.9483871459960938,60.0,0.0,0.0,0.0,0.0,0.0,0.378,32.766,32.766,0.403,2.862,2018.64111328125,809.9515380859375,34.788455963134766,,False,
1783642983.487835,2026-07-09T17:23:03,13956,20260709_172258,,,,,,ground_idle,,,,,,,,,False,-0.005180842243134975,-0.0122169004753232,1.0015699863433838,-0.05883580073714256,-0.09675969183444977,-0.04980326443910599,2.0,-2.0,92.0,27.0,0.027,0.0006150497356429696,-0.00047812267439439893,0.022370409220457077,0.0027307344134896994,-0.0019517941400408745,0.003941135480999947,-0.6658700108528137,-0.2770707309246063,0.10324890166521072,0.01945262774825096,-0.012334712781012058,3.3152575724670896e-06,0.00019257878011558205,3.9483871459960938,60.0,0.0,0.0,0.0,0.0,0.0,0.378,32.766,32.766,0.403,2.862,2018.64111328125,809.9515380859375,34.788455963134766,,False,
1783642983.4979742,2026-07-09T17:23:03,13968,20260709_172258,,,,,,ground_idle,,,,,,,,,False,-0.004836276173591614,-0.010677213780581951,1.0017298460006714,-0.1348508596420288,-0.5567814111709595,-0.06362316757440567,0.0,-4.0,94.0,27.0,0.027,0.0006150497356429696,-0.00047812267439439893,0.022370409220457077,0.0027307344134896994,-0.0019517941400408745,0.003941135480999947,-0.6658700108528137,-0.2770707309246063,0.10324890166521072,0.022418640553951263,0.004079124890267849,3.4134529869334074e-06,0.00019774792599491775,3.9536657333374023,60.0,0.0,0.0,0.0,0.0,0.0,0.378,32.766,32.766,0.403,2.862,2018.64111328125,809.9515380859375,34.788455963134766,,False,
1783642983.5081277,2026-07-09T17:23:03,13976,20260709_172258,,,,,,ground_idle,,,,,,,,,False,-0.0027592305559664965,-0.011731969192624092,0.9997867941856384,0.020861396566033363,0.2456004023551941,-0.2053142488002777,1.0,7.0,87.0,27.0,0.027,-0.0009629171108826995,-0.0007298849523067474,0.022460713982582092,-0.005613436456769705,-0.002964842366054654,0.004280490335077047,-0.6563791036605835,-0.25546953082084656,0.10363195091485977,0.022418640553951263,0.004079124890267849,3.4134529869334074e-06,0.00019774792599491775,3.9536657333374023,60.0,0.0,0.0,0.0,0.0,0.0,32.766,32.766,32.766,0.403,2.862,2018.64111328125,809.9515380859375,34.788455963134766,,False,
1783642983.5182807,2026-07-09T17:23:03,13982,20260709_172258,,,,,,ground_idle,,,,,,,,,False,-0.0028753101360052824,-0.01292319968342781,0.9980212450027466,0.20493297278881073,-0.27235472202301025,0.04304058477282524,0.0,-5.0,98.0,27.0,0.027,-0.0009629171108826995,-0.0007298849523067474,0.022460713982582092,-0.005613436456769705,-0.002964842366054654,0.004280490335077047,-0.6563791036605835,-0.25546953082084656,0.10363195091485977,0.022418640553951263,0.004079124890267849,3.4134529869334074e-06,0.00019774792599491775,3.9536657333374023,60.0,0.0,0.0,0.0,0.0,0.0,32.766,32.766,32.766,0.403,2.862,2018.64111328125,809.9515380859375,34.788455963134766,,False,
1783642983.5284216,2026-07-09T17:23:03,13996,20260709_172258,,,,,,ground_idle,,,,,,,,,False,-0.0033370936289429665,-0.01445179432630539,0.999519944190979,-0.00945202261209488,-0.6294762492179871,0.10745256394147873,-1.0,1.0,87.0,16.0,0.016,-0.0007078505586832762,-0.0005135613610036671,0.01974695548415184,-0.003947656601667404,-0.0018217790639027953,-0.01061762124300003,-0.6641846895217896,-0.2142769992351532,0.10373872518539429,0.022418640553951263,0.004079124890267849,3.4134529869334074e-06,0.00019774792599491775,3.9536657333374023,60.0,0.0,0.0,0.0,0.0,0.0,32.766,32.766,32.766,0.403,2.862,2018.64111328125,809.9515380859375,34.788455963134766,,False,
1783642983.5385647,2026-07-09T17:23:03,14002,20260709_172258,,,,,,ground_idle,,,,,,,,,False,-0.0025138407945632935,-0.013523546978831291,1.0007405281066895,-0.036559391766786575,-0.07129278779029846,0.13131578266620636,0.0,3.0,86.0,16.0,0.016,-0.0007078505586832762,-0.0005135613610036671,0.01974695548415184,-0.003947656601667404,-0.0018217790639027953,-0.01061762124300003,-0.6641846895217896,-0.2142769992351532,0.10373872518539429,0.022418640553951263,0.004079124890267849,3.4134529869334074e-06,0.00019774792599491775,3.9536657333374023,60.0,0.0,0.0,0.0,0.0,0.0,32.766,32.766,32.766,0.403,2.862,2018.64111328125,809.9515380859375,34.788455963134766,,False,
1783642983.5488257,2026-07-09T17:23:03,14018,20260709_172258,,,,,,ground_idle,,,,,,,,,False,-0.004180252552032471,-0.014296948909759521,0.9994850754737854,-0.1056709885597229,-0.1134895384311676,0.17331112921237946,0.0,-1.0,99.0,16.0,0.016,-0.00028034456772729754,-0.0007209176546894014,0.019537335261702538,-0.0011389151914045215,-0.0031638958025723696,-0.010543330572545528,-0.6546648740768433,-0.23065659403800964,0.10413496941328049,0.019537335261702538,-0.010583313181996346,3.315255753477686e-06,0.0001925757242133841,3.9536657333374023,60.0,0.0,0.0,0.0,0.0,0.0,32.766,32.766,32.766,0.403,2.862,2018.64111328125,809.9515380859375,34.788455963134766,,False,
1783642983.5589674,2026-07-09T17:23:03,14022,20260709_172258,,,,,,ground_idle,,,,,,,,,False,-0.0030584833584725857,-0.012168215587735176,1.0000970363616943,-0.14905868470668793,0.10621663928031921,0.13746438920497894,1.0,-1.0,96.0,16.0,0.016,-0.00028034456772729754,-0.0007209176546894014,0.019537335261702538,-0.0011389151914045215,-0.0031638958025723696,-0.010543330572545528,-0.6546648740768433,-0.23065659403800964,0.10413496941328049,0.019537335261702538,-0.010583313181996346,3.315255753477686e-06,0.0001925757242133841,3.9536657333374023,60.0,0.0,0.0,0.0,0.0,0.0,32.766,32.766,32.766,0.41100000000000003,2.863,2018.6356201171875,809.9522705078125,34.79381561279297,,False,
1783642983.5691195,2026-07-09T17:23:03,14036,20260709_172258,,,,,,ground_idle,,,,,,,,,False,-0.003820831421762705,-0.013299653306603432,0.999839723110199,0.05536793917417526,0.03727264702320099,0.017225097864866257,-2.0,0.0,98.0,16.0,0.016,-0.00026980109396390617,-0.000272924400633201,0.023154674097895622,-0.0008779380586929619,-0.0008403382380492985,0.009599259123206139,-0.6746323704719543,-0.23318707942962646,0.10600385069847107,0.019537335261702538,-0.010583313181996346,3.315255753477686e-06,0.0001925757242133841,3.9536657333374023,60.0,0.0,0.0,0.0,0.0,0.0,32.766,32.766,32.766,0.41100000000000003,2.863,2018.6356201171875,809.9522705078125,34.79381561279297,,False,
1783642983.57926,2026-07-09T17:23:03,14042,20260709_172258,,,,,,ground_idle,,,,,,,,,False,-0.005090197082608938,-0.01156015507876873,0.999638557434082,-0.18494167923927307,0.18504668772220612,-0.14799171686172485,0.0,0.0,96.0,29.0,0.029,-0.00026980109396390617,-0.000272924400633201,0.023154674097895622,-0.0008779380586929619,-0.0008403382380492985,0.009599259123206139,-0.6746323704719543,-0.23318707942962646,0.10600385069847107,0.019537335261702538,-0.010583313181996346,3.315255753477686e-06,0.0001925757242133841,3.9536657333374023,60.0,0.0,0.0,0.0,0.0,0.0,32.766,32.766,32.766,0.41100000000000003,2.863,2018.6356201171875,809.9522705078125,34.79381561279297,,False,
1783642983.5894053,2026-07-09T17:23:03,14059,20260709_172258,,,,,,ground_idle,,,,,,,,,False,-0.0055325934663414955,-0.013113841414451599,1.0009709596633911,-0.001191399642266333,0.02959774062037468,-0.07585515081882477,1.0,-1.0,94.0,29.0,0.029,0.0006114494754001498,-0.0004888427793048322,0.023346006870269775,0.0037636938504874706,-0.0019868023227900267,0.009603840298950672,-0.6651933789253235,-0.27246472239494324,0.10486838221549988,0.019537335261702538,-0.010583313181996346,3.315255753477686e-06,0.0001925757242133841,3.9536657333374023,60.0,0.0,0.0,0.0,0.0,0.0,32.766,32.766,32.766,0.41100000000000003,2.863,2018.6356201171875,809.9522705078125,34.79381561279297,,False,
1783642983.599592,2026-07-09T17:23:03,14068,20260709_172258,,,,,,ground_idle,,,,,,,,,False,-0.0055325934663414955,-0.013113841414451599,1.0009709596633911,-0.001191399642266333,0.02959774062037468,-0.07585515081882477,0.0,-3.0,95.0,29.0,0.029,0.0006114494754001498,-0.0004888427793048322,0.023346006870269775,0.0037636938504874706,-0.0019868023227900267,0.009603840298950672,-0.6651933789253235,-0.27246472239494324,0.10486838221549988,0.023444563150405884,0.009654982015490532,3.41347231369582e-06,0.0001977468782570213,3.9536657333374023,60.0,0.0,0.0,0.0,0.0,0.0,32.766,32.766,32.766,0.41100000000000003,2.863,2018.6356201171875,809.9522705078125,34.79381561279297,,False,
1783642983.6097732,2026-07-09T17:23:03,14079,20260709_172258,,,,,,ground_idle,,,,,,,,,False,-0.006464794743806124,-0.013435048051178455,1.0010651350021362,0.3611138164997101,-0.1723855584859848,-0.009995546191930771,-1.0,1.0,99.0,29.0,0.029,0.000414552865549922,-0.00027853803476318717,0.0235412809997797,0.0023024573456496,-0.0009346356964670122,0.00968958716839552,-0.6657105684280396,-0.21368004381656647,0.10531433671712875,0.023444563150405884,0.009654982015490532,3.41347231369582e-06,0.0001977468782570213,3.9536657333374023,60.0,0.0,0.0,0.0,0.0,0.0,32.766,32.766,32.766,0.41100000000000003,2.863,2018.6356201171875,809.9522705078125,34.79381561279297,,False,
1783642983.6199691,2026-07-09T17:23:03,14082,20260709_172258,,,,,,ground_idle,,,,,,,,,False,-0.006464794743806124,-0.013435048051178455,1.0010651350021362,0.3611138164997101,-0.1723855584859848,-0.009995546191930771,1.0,5.0,97.0,29.0,0.029,0.000414552865549922,-0.00027853803476318717,0.0235412809997797,0.0023024573456496,-0.0009346356964670122,0.00968958716839552,-0.6657105684280396,-0.21368004381656647,0.10531433671712875,0.023444563150405884,0.009654982015490532,3.41347231369582e-06,0.0001977468782570213,3.9536657333374023,60.0,0.0,0.0,0.0,0.0,0.0,32.766,32.766,32.766,0.41100000000000003,2.863,2018.6356201171875,809.9522705078125,34.79381561279297,,False,
1783642983.6302042,2026-07-09T17:23:03,14099,20260709_172258,,,,,,ground_idle,,,,,,,,,False,-0.005623748060315847,-0.012883315794169903,0.9980015754699707,-0.04853414371609688,0.2547103762626648,-0.24730151891708374,-1.0,-6.0,88.0,16.0,0.016,0.0006179594784043729,-0.00031379377469420433,0.020428724586963654,0.0030500763095915318,-0.001238106982782483,-0.00760043365880847,-0.6720699071884155,-0.2678704261779785,0.10550817847251892,0.023444563150405884,0.009654982015490532,3.41347231369582e-06,0.0001977468782570213,3.9536657333374023,60.0,0.0,0.0,0.0,0.0,0.0,32.766,32.766,32.766,0.41100000000000003,2.863,2018.6356201171875,809.9522705078125,34.79381561279297,,False,
1783642983.6405566,2026-07-09T17:23:03,14109,20260709_172258,,,,,,ground_idle,,,,,,,,,False,-0.004447628743946552,-0.011726685799658298,0.9999982714653015,-0.09050973504781723,0.07226504385471344,-0.1468159556388855,0.0,0.0,83.0,16.0,0.016,0.0006179594784043729,-0.00031379377469420433,0.020428724586963654,0.0030500763095915318,-0.001238106982782483,-0.00760043365880847,-0.6720699071884155,-0.2678704261779785,0.10550817847251892,0.023444563150405884,0.009654982015490532,3.41347231369582e-06,0.0001977468782570213,3.9536657333374023,60.0,0.0,0.0,0.0,0.0,0.0,32.766,32.766,32.766,0.41100000000000003,2.863,2018.6356201171875,809.9522705078125,34.79381561279297,,False,
1783642983.6507883,2026-07-09T17:23:03,14118,20260709_172258,,,,,,ground_idle,,,,,,,,,False,-0.004447628743946552,-0.011726685799658298,0.9999982714653015,-0.09050973504781723,0.07226504385471344,-0.1468159556388855,1.0,0.0,96.0,16.0,0.016,0.0008444098057225347,-0.0005375707405619323,0.020272918045520782,0.0036083043087273836,-0.002510493854060769,-0.007893025875091553,-0.6634127497673035,-0.277290016412735,0.10404576361179352,0.020272918045520782,-0.007904124446213245,3.3152621199405985e-06,0.0001925771066453308,3.9536657333374023,60.0,0.0,0.0,0.0,0.0,0.0,32.766,32.766,32.766,0.41100000000000003,2.863,2018.6356201171875,809.9522705078125,34.79381561279297,,False,
1783642983.6612651,2026-07-09T17:23:03,14129,20260709_172258,,,,,,ground_idle,,,,,,,,,False,-0.005171789787709713,-0.010769527405500412,0.9972122311592102,0.05657348781824112,-0.01834622025489807,0.11196484416723251,0.0,-1.0,89.0,16.0,0.016,0.0008444098057225347,-0.0005375707405619323,0.020272918045520782,0.0036083043087273836,-0.002510493854060769,-0.007893025875091553,-0.6634127497673035,-0.277290016412735,0.10404576361179352,0.020272918045520782,-0.007904124446213245,3.3152621199405985e-06,0.0001925771066453308,3.9536657333374023,60.0,0.0,0.0,0.0,0.0,0.0,32.766,32.766,0.292,0.40700000000000003,2.857,2018.570068359375,809.9580078125,34.80387496948242,,False,
1783642983.6714795,2026-07-09T17:23:03,14139,20260709_172258,,,,,,ground_idle,,,,,,,,,False,-0.005067711230367422,-0.012511118315160275,0.9982614517211914,0.22962431609630585,-0.30752238631248474,-0.10423640161752701,0.0,2.0,99.0,16.0,0.016,0.00041134475031867623,-0.0005655462737195194,0.020118296146392822,0.0010613903868943453,-0.002556570339947939,-0.008022872731089592,-0.6627994775772095,-0.2687118947505951,0.10481221973896027,0.020272918045520782,-0.007904124446213245,3.3152621199405985e-06,0.0001925771066453308,3.9536657333374023,60.0,0.0,0.0,0.0,0.0,0.0,32.766,32.766,0.292,0.40700000000000003,2.857,2018.570068359375,809.9580078125,34.80387496948242,,False,
1783642983.6817405,2026-07-09T17:23:03,14152,20260709_172258,,,,,,ground_idle,,,,,,,,,False,-0.005708465352654457,-0.013299500569701195,1.0002304315567017,-0.1135813370347023,-0.14579184353351593,-0.20686835050582886,-2.0,7.0,100.0,29.0,0.029,0.00041134475031867623,-0.0005655462737195194,0.020118296146392822,0.0010613903868943453,-0.002556570339947939,-0.008022872731089592,-0.6627994775772095,-0.2687118947505951,0.10481221973896027,0.020272918045520782,-0.007904124446213245,3.3152621199405985e-06,0.0001925771066453308,3.9536657333374023,60.0,0.0,0.0,0.0,0.0,0.0,32.766,32.766,0.292,0.40700000000000003,2.857,2018.570068359375,809.9580078125,34.80387496948242,,False,
1783642983.6919131,2026-07-09T17:23:03,14162,20260709_172258,,,,,,ground_idle,,,,,,,,,False,-0.0067646801471710205,-0.010119006969034672,0.9993451833724976,0.05280793458223343,-0.02761305868625641,0.014051361940801144,0.0,-8.0,100.0,29.0,0.029,0.0008423267281614244,-6.055702397134155e-05,0.02386164478957653,0.0033631445840001106,0.0002103487786371261,0.010268216952681541,-0.6792625188827515,-0.2764720618724823,0.10456359386444092,0.020272918045520782,-0.007904124446213245,3.3152621199405985e-06,0.0001925771066453308,3.9536657333374023,60.0,0.0,0.0,0.0,0.0,0.0,32.766,32.766,0.292,0.40700000000000003,2.857,2018.570068359375,809.9580078125,34.80387496948242,,False,
1783642983.7020757,2026-07-09T17:23:03,14172,20260709_172258,,,,,,ground_idle,,,,,,,,,False,-0.004012109711766243,-0.01216176152229309,0.9995052218437195,0.09213332086801529,-0.10329657793045044,-0.07558690011501312,2.0,0.0,97.0,29.0,0.029,0.0008423267281614244,-6.055702397134155e-05,0.02386164478957653,0.0033631445840001106,0.0002103487786371261,0.010268216952681541,-0.6792625188827515,-0.2764720618724823,0.10456359386444092,0.02396557107567787,0.010267491452395916,3.413442072996986e-06,0.0001977470237761736,3.9536657333374023,60.0,0.0,0.0,0.0,0.0,0.0,32.766,32.766,0.292,0.40700000000000003,2.857,2018.570068359375,809.9580078125,34.80387496948242,,False,
1783642983.712229,2026-07-09T17:23:03,14179,20260709_172258,,,,,,ground_idle,,,,,,,,,False,-0.0030600763857364655,-0.013432797975838184,0.999687910079956,-0.23391352593898773,0.2048802524805069,-0.04372738301753998,2.0,0.0,97.0,29.0,0.029,0.0008752938010729849,-0.0005132446531206369,0.024068236351013184,0.002982300240546465,-0.0020950459875166416,0.010255294851958752,-0.6599110960960388,-0.2724058926105499,0.10369812697172165,0.02396557107567787,0.010267491452395916,3.413442072996986e-06,0.0001977470237761736,3.9536657333374023,60.0,0.0,0.0,0.0,0.0,0.0,32.766,32.766,0.292,0.40700000000000003,2.857,2018.570068359375,809.9580078125,34.80387496948242,,False,
1783642983.7223845,2026-07-09T17:23:03,14192,20260709_172258,,,,,,ground_idle,,,,,,,,,False,-0.003022636054083705,-0.015088317915797234,1.0004791021347046,0.023490047082304955,0.0103519968688488,-0.064134381711483,0.0,0.0,87.0,14.0,0.014,0.0008752938010729849,-0.0005132446531206369,0.024068236351013184,0.002982300240546465,-0.0020950459875166416,0.010255294851958752,-0.6599110960960388,-0.2724058926105499,0.10369812697172165,0.02396557107567787,0.010267491452395916,3.413442072996986e-06,0.0001977470237761736,3.9536657333374023,60.0,0.0,0.0,0.0,0.0,0.0,32.766,32.766,0.292,0.40700000000000003,2.857,2018.570068359375,809.9580078125,34.80387496948242,,False,
1783642983.7325513,2026-07-09T17:23:03,14202,20260709_172258,,,,,,ground_idle,,,,,,,,,False,-0.0033845368307083845,-0.012592396698892117,1.0014349222183228,-0.05775889381766319,-0.0771401971578598,0.017326150089502335,-1.0,0.0,88.0,14.0,0.014,0.0008822676609270275,-0.00033916262327693403,0.019868897274136543,0.002994292415678501,-0.00125586474314332,-0.012851825915277004,-0.6711857914924622,-0.26739737391471863,0.10389551520347595,0.02396557107567787,0.010267491452395916,3.413442072996986e-06,0.0001977470237761736,3.9536657333374023,60.0,0.0,0.0,0.0,0.0,0.0,32.766,32.766,0.292,0.40700000000000003,2.857,2018.570068359375,809.9580078125,34.80387496948242,,False,
1783642983.7427413,2026-07-09T17:23:03,14212,20260709_172258,,,,,,ground_idle,,,,,,,,,False,-0.00332793896086514,-0.014071572571992874,0.9993277788162231,-0.09793225675821304,0.19065293669700623,0.012703325599431992,0.0,3.0,93.0,14.0,0.014,0.0008822676609270275,-0.00033916262327693403,0.019868897274136543,0.002994292415678501,-0.00125586474314332,-0.012851825915277004,-0.6711857914924622,-0.26739737391471863,0.10389551520347595,0.02396557107567787,0.010267491452395916,3.413442072996986e-06,0.0001977470237761736,3.9536657333374023,60.0,0.0,0.0,0.0,0.0,0.0,32.766,32.766,0.292,0.40700000000000003,2.857,2018.570068359375,809.9580078125,34.80387496948242,,False,
1783642983.7530158,2026-07-09T17:23:03,14220,20260709_172258,,,,,,ground_idle,,,,,,,,,False,-0.0029066309798508883,-0.011394334957003593,1.0000112056732178,-0.013742554001510143,-0.27449166774749756,0.09662669152021408,0.0,3.0,93.0,14.0,0.014,0.0006273652543313801,-0.0005680108442902565,0.01961785927414894,0.001773216063156724,-0.002753798384219408,-0.012605412863194942,-0.6616144776344299,-0.2554588317871094,0.1033967137336731,0.01961785927414894,-0.012628424912691116,3.3152432479255367e-06,0.00019257806707173586,3.9536657333374023,60.0,0.0,0.0,0.0,0.0,0.0,32.766,32.766,0.294,0.40900000000000003,2.853,2018.4278564453125,809.9702758789062,34.811485290527344,,False,
1783642983.763175,2026-07-09T17:23:03,14232,20260709_172258,,,,,,ground_idle,,,,,,,,,False,-0.0026635276153683662,-0.010260614566504955,0.9993805885314941,0.006111270748078823,0.0924140214920044,-0.012285564094781876,4.0,1.0,99.0,14.0,0.014,0.0006273652543313801,-0.0005680108442902565,0.01961785927414894,0.001773216063156724,-0.002753798384219408,-0.012605412863194942,-0.6616144776344299,-0.2554588317871094,0.1033967137336731,0.01961785927414894,-0.012628424912691116,3.3152432479255367e-06,0.00019257806707173586,3.9536657333374023,60.0,0.0,0.0,0.0,0.0,0.0,32.766,32.766,0.294,0.40900000000000003,2.853,2018.4278564453125,809.9702758789062,34.811485290527344,,False,
1783642983.7733247,2026-07-09T17:23:03,14242,20260709_172258,,,,,,ground_idle,,,,,,,,,False,-0.0025370654184371233,-0.010934330523014069,1.0010731220245361,-0.01221483200788498,-0.2995249629020691,-0.005658076144754887,-2.0,3.0,95.0,27.0,0.027,0.00040597893530502915,-0.0015680630458518863,0.019363021478056908,0.0006708083092235029,-0.007641963195055723,-0.012670389376580715,-0.6467434763908386,-0.21377155184745789,0.10273323208093643,0.01961785927414894,-0.012628424912691116,3.3152432479255367e-06,0.00019257806707173586,3.9536657333374023,60.0,0.0,0.0,0.0,0.0,0.0,32.766,32.766,0.294,0.40900000000000003,2.853,2018.4278564453125,809.9702758789062,34.811485290527344,,False,
1783642983.7834747,2026-07-09T17:23:03,14252,20260709_172258,,,,,,ground_idle,,,,,,,,,False,-0.004858917556703091,-0.012467792257666588,1.0005532503128052,-0.1305607706308365,0.008686793968081474,0.06877446919679642,-2.0,-5.0,97.0,27.0,0.027,0.00040597893530502915,-0.0015680630458518863,0.019363021478056908,0.0006708083092235029,-0.007641963195055723,-0.012670389376580715,-0.6467434763908386,-0.21377155184745789,0.10273323208093643,0.01961785927414894,-0.012628424912691116,3.3152432479255367e-06,0.00019257806707173586,3.9536657333374023,60.0,0.0,0.0,0.0,0.0,0.0,32.766,32.766,0.294,0.40900000000000003,2.853,2018.4278564453125,809.9702758789062,34.811485290527344,,False,
1783642983.7936223,2026-07-09T17:23:03,14262,20260709_172258,,,,,,ground_idle,,,,,,,,,False,-0.005156640894711018,-0.01212231907993555,0.9986433386802673,0.19464100897312164,0.3144802153110504,-0.006909879390150309,0.0,4.0,94.0,27.0,0.027,-3.7413687095977366e-05,-0.0005427813157439232,0.02246679738163948,-0.0014643949689343572,-0.0017513196216896176,0.0034253671765327454,-0.6661016941070557,-0.222036674618721,0.10267911851406097,0.01961785927414894,-0.012628424912691116,3.3152432479255367e-06,0.00019257806707173586,3.9536657333374023,60.0,0.0,0.0,0.0,0.0,0.0,32.766,32.766,0.294,0.40900000000000003,2.853,2018.4278564453125,809.9702758789062,34.811485290527344,,False,
1783642983.8037694,2026-07-09T17:23:03,14272,20260709_172258,,,,,,ground_idle,,,,,,,,,False,-0.00457732891663909,-0.013040218502283096,0.9985619783401489,0.24812278151512146,-0.2137034386396408,-0.02177383191883564,-1.0,-4.0,96.0,27.0,0.027,-3.7413687095977366e-05,-0.0005427813157439232,0.02246679738163948,-0.0014643949689343572,-0.0017513196216896176,0.0034253671765327454,-0.6661016941070557,-0.222036674618721,0.10267911851406097,0.022503986954689026,0.0034261143300682306,3.4134334327973193e-06,0.00019774561224039644,3.958944320678711,60.0,0.0,0.0,0.0,0.0,0.0,32.766,0.319,0.294,0.40900000000000003,2.853,2018.4278564453125,809.9702758789062,34.811485290527344,,False,
1783642983.8139164,2026-07-09T17:23:03,14282,20260709_172258,,,,,,ground_idle,,,,,,,,,False,-0.005103099625557661,-0.012984168715775013,1.0032191276550293,-0.17913076281547546,0.12147556990385056,-0.2459428757429123,1.0,7.0,98.0,27.0,0.027,0.0008947873138822615,-0.00031814066460356116,0.022537589073181152,0.0032156261149793863,-0.000584345543757081,0.0033026125747710466,-0.6653938293457031,-0.19604381918907166,0.1030295193195343,0.022503986954689026,0.0034261143300682306,3.4134334327973193e-06,0.00019774561224039644,3.958944320678711,60.0,0.0,0.0,0.0,0.0,0.0,32.766,0.319,0.294,0.40900000000000003,2.853,2018.4278564453125,809.9702758789062,34.811485290527344,,False,
1783642983.8240767,2026-07-09T17:23:03,14292,20260709_172258,,,,,,ground_idle,,,,,,,,,False,-0.003833385184407234,-0.013536261394619942,1.0001314878463745,0.2814820110797882,0.18372079730033875,0.17354775965213776,0.0,-3.0,83.0,17.0,0.017,0.0008947873138822615,-0.00031814066460356116,0.022537589073181152,0.0032156261149793863,-0.000584345543757081,0.0033026125747710466,-0.6653938293457031,-0.19604381918907166,0.1030295193195343,0.022503986954689026,0.0034261143300682306,3.4134334327973193e-06,0.00019774561224039644,3.958944320678711,60.0,0.0,0.0,0.0,0.0,0.0,32.766,0.319,0.294,0.40900000000000003,2.853,2018.4278564453125,809.9702758789062,34.811485290527344,,False,
1783642983.834228,2026-07-09T17:23:03,14302,20260709_172258,,,,,,ground_idle,,,,,,,,,False,-0.003707439638674259,-0.012703116983175278,1.0004658699035645,0.09503688663244247,-0.2928987145423889,-0.18901532888412476,0.0,3.0,87.0,17.0,0.017,-6.567755190189928e-05,-0.0005753447767347097,0.02021387591958046,-0.001698461128398776,-0.0021045589819550514,-0.008969360962510109,-0.6646310687065125,-0.19721518456935883,0.10147950798273087,0.022503986954689026,0.0034261143300682306,3.4134334327973193e-06,0.00019774561224039644,3.958944320678711,60.0,0.0,0.0,0.0,0.0,0.0,32.766,0.319,0.294,0.40900000000000003,2.853,2018.4278564453125,809.9702758789062,34.811485290527344,,False,
1783642983.844384,2026-07-09T17:23:03,14312,20260709_172258,,,,,,ground_idle,,,,,,,,,False,-0.003231593407690525,-0.012642010115087032,1.0009229183197021,-0.25372305512428284,-0.383372038602829,-0.05459011718630791,-1.0,-3.0,98.0,17.0,0.017,-6.567755190189928e-05,-0.0005753447767347097,0.02021387591958046,-0.001698461128398776,-0.0021045589819550514,-0.008969360962510109,-0.6646310687065125,-0.19721518456935883,0.10147950798273087,0.022503986954689026,0.0034261143300682306,3.4134334327973193e-06,0.00019774561224039644,3.958944320678711,60.0,0.0,0.0,0.0,0.0,0.0,32.766,0.319,0.294,0.40900000000000003,2.853,2018.4278564453125,809.9702758789062,34.811485290527344,,False,
1783642983.8545368,2026-07-09T17:23:03,14322,20260709_172258,,,,,,ground_idle,,,,,,,,,False,-0.004359614569693804,-0.012813722714781761,1.0000872611999512,0.19711479544639587,0.1348833292722702,-0.08577339351177216,0.0,-3.0,97.0,17.0,0.017,0.0006009916542097926,-0.0003319402749184519,0.020041286945343018,0.00223536673001945,-0.0009290666785091162,-0.00882338173687458,-0.6728128790855408,-0.2524578869342804,0.10179995000362396,0.020041286945343018,-0.008823820389807224,3.3152416563098086e-06,0.00019257525855209678,3.9536657333374023,60.0,0.0,0.0,0.0,0.0,0.0,32.766,0.319,0.292,0.4,2.857,2018.5098876953125,809.9633178710938,34.81386184692383,,False,
1783642983.8647199,2026-07-09T17:23:03,14332,20260709_172258,,,,,,ground_idle,,,,,,,,,False,-0.005101307295262814,-0.01199248991906643,0.9984023571014404,-0.22124087810516357,-0.2638648450374603,0.2294907122850418,1.0,6.0,97.0,17.0,0.017,0.0006009916542097926,-0.0003319402749184519,0.020041286945343018,0.00223536673001945,-0.0009290666785091162,-0.00882338173687458,-0.6728128790855408,-0.2524578869342804,0.10179995000362396,0.020041286945343018,-0.008823820389807224,3.3152416563098086e-06,0.00019257525855209678,3.9536657333374023,60.0,0.0,0.0,0.0,0.0,0.0,32.766,0.319,0.292,0.4,2.857,2018.5098876953125,809.9633178710938,34.81386184692383,,False,
1783642983.8748665,2026-07-09T17:23:03,14342,20260709_172258,,,,,,ground_idle,,,,,,,,,False,-0.004931628704071045,-0.012399682775139809,1.0015872716903687,-0.03668005019426346,-0.0722266361117363,0.03816737234592438,0.0,0.0,95.0,34.0,0.034,-0.0007482888177037239,-0.0005713289137929678,0.019873687997460365,-0.004859989043325186,-0.0022322009317576885,-0.008767278864979744,-0.6642287373542786,-0.19583693146705627,0.10214719921350479,0.020041286945343018,-0.008823820389807224,3.3152416563098086e-06,0.00019257525855209678,3.9536657333374023,60.0,0.0,0.0,0.0,0.0,0.0,32.766,0.319,0.292,0.4,2.857,2018.5098876953125,809.9633178710938,34.81386184692383,,False,
1783642983.8850155,2026-07-09T17:23:03,14352,20260709_172258,,,,,,ground_idle,,,,,,,,,False,-0.005133895669132471,-0.012679300270974636,1.0013538599014282,-0.4104272425174713,0.08805295825004578,-0.07649033516645432,0.0,0.0,85.0,34.0,0.034,-0.0007482888177037239,-0.0005713289137929678,0.019873687997460365,-0.004859989043325186,-0.0022322009317576885,-0.008767278864979744,-0.6642287373542786,-0.19583693146705627,0.10214719921350479,0.020041286945343018,-0.008823820389807224,3.3152416563098086e-06,0.00019257525855209678,3.9536657333374023,60.0,0.0,0.0,0.0,0.0,0.0,32.766,0.319,0.292,0.4,2.857,2018.5098876953125,809.9633178710938,34.81386184692383,,False,
1783642983.89516,2026-07-09T17:23:03,14362,20260709_172258,,,,,,ground_idle,,,,,,,,,False,-0.005029027350246906,-0.01272872369736433,1.0001721382141113,-0.006181782577186823,-0.10342477262020111,0.14542847871780396,0.0,-3.0,95.0,34.0,0.034,-6.050699812476523e-05,-0.0005260917241685092,0.02588021010160446,-0.00103758426848799,-0.0019595578778535128,0.020757433027029037,-0.6651310920715332,-0.22471606731414795,0.10131904482841492,0.020041286945343018,-0.008823820389807224,3.3152416563098086e-06,0.00019257525855209678,3.9536657333374023,60.0,0.0,0.0,0.0,0.0,0.0,32.766,0.319,0.292,0.4,2.857,2018.5098876953125,809.9633178710938,34.81386184692383,,False,
1783642983.9053047,2026-07-09T17:23:03,14375,20260709_172258,,,,,,ground_idle,,,,,,,,,False,-0.004139977507293224,-0.01501141581684351,0.9998415112495422,-0.13402466475963593,-0.3926633894443512,-0.044040899723768234,0.0,3.0,93.0,34.0,0.034,-0.0008061478729359806,-0.0005370921571739018,0.02629631757736206,-0.004923471249639988,-0.0020559276454150677,0.020900942385196686,-0.6651310920715332,-0.22471606731414795,0.10131904482841492,0.026087477803230286,0.02082727663218975,3.4134909583372064e-06,0.00019774731481447816,3.9536657333374023,60.0,0.0,0.0,0.0,0.0,0.0,32.766,32.766,0.292,0.4,2.857,2018.5098876953125,809.9633178710938,34.81386184692383,,False,
1783642983.9154475,2026-07-09T17:23:03,14382,20260709_172258,,,,,,ground_idle,,,,,,,,,False,-0.004108616150915623,-0.012811279855668545,0.9998935461044312,0.04033081233501434,-0.032822299748659134,0.05180196464061737,-1.0,-3.0,103.0,34.0,0.034,-0.0008061478729359806,-0.0005370921571739018,0.02629631757736206,-0.004923471249639988,-0.0020559276454150677,0.020900942385196686,-0.6790530681610107,-0.22508211433887482,0.10021231323480606,0.026087477803230286,0.02082727663218975,3.4134909583372064e-06,0.00019774731481447816,3.9536657333374023,60.0,0.0,0.0,0.0,0.0,0.0,32.766,32.766,0.292,0.4,2.857,2018.5098876953125,809.9633178710938,34.81386184692383,,False,
1783642983.925595,2026-07-09T17:23:03,14395,20260709_172258,,,,,,ground_idle,,,,,,,,,False,-0.005733923986554146,-0.013157812878489494,1.0028759241104126,-0.07571396976709366,0.24328303337097168,-0.08243345469236374,0.0,-4.0,89.0,15.0,0.015,0.0008984145242720842,-0.00033374628401361406,0.021696606650948524,0.00391096668317914,-0.0012164701474830508,-0.0052865915931761265,-0.6790530681610107,-0.22508211433887482,0.10021231323480606,0.026087477803230286,0.02082727663218975,3.4134909583372064e-06,0.00019774731481447816,3.9536657333374023,60.0,0.0,0.0,0.0,0.0,0.0,32.766,32.766,0.292,0.4,2.857,2018.5098876953125,809.9633178710938,34.81386184692383,,False,
1783642983.935772,2026-07-09T17:23:03,14402,20260709_172258,,,,,,ground_idle,,,,,,,,,False,-0.007371068932116032,-0.014080718159675598,1.000519037246704,-0.010521244257688522,0.1906796246767044,0.2685234248638153,0.0,0.0,86.0,15.0,0.015,0.0008984145242720842,-0.00033374628401361406,0.021696606650948524,0.00391096668317914,-0.0012164701474830508,-0.0052865915931761265,-0.6770991683006287,-0.26308420300483704,0.100399449467659,0.026087477803230286,0.02082727663218975,3.4134909583372064e-06,0.00019774731481447816,3.9536657333374023,60.0,0.0,0.0,0.0,0.0,0.0,32.766,32.766,0.292,0.4,2.857,2018.5098876953125,809.9633178710938,34.81386184692383,,False,
1783642983.9459672,2026-07-09T17:23:03,14415,20260709_172258,,,,,,ground_idle,,,,,,,,,False,-0.006173566449433565,-0.012172101996839046,0.9981971383094788,0.2538689970970154,-0.2525482475757599,0.06035078316926956,1.0,0.0,99.0,15.0,0.015,0.0009294390911236405,-0.0006027956842444837,0.021594790741801262,0.0032852869480848312,-0.0027955980040133,-0.005052537657320499,-0.6770991683006287,-0.26308420300483704,0.100399449467659,0.026087477803230286,0.02082727663218975,3.4134909583372064e-06,0.00019774731481447816,3.9536657333374023,60.0,0.0,0.0,0.0,0.0,0.0,32.766,32.766,0.292,0.4,2.857,2018.5098876953125,809.9633178710938,34.81386184692383,,False,
1783642983.9561682,2026-07-09T17:23:03,14422,20260709_172258,,,,,,ground_idle,,,,,,,,,False,-0.004601684398949146,-0.011898346245288849,0.9959933757781982,-0.08341559022665024,0.4026171863079071,0.13030914962291718,0.0,4.0,93.0,15.0,0.015,0.0009294390911236405,-0.0006027956842444837,0.021594790741801262,0.0032852869480848312,-0.0027955980040133,-0.005052537657320499,-0.6663498282432556,-0.22206127643585205,0.10150101780891418,0.021600881591439247,-0.005053370259702206,3.3152584819617914e-06,0.0001925768592627719,3.9536657333374023,60.0,0.0,0.0,0.0,0.0,0.0,32.766,32.766,32.766,0.403,2.857,2018.6192626953125,809.953369140625,34.81874465942383,,False,
1783642983.9663336,2026-07-09T17:23:03,14435,20260709_172258,,,,,,ground_idle,,,,,,,,,False,-0.00438316073268652,-0.013416478410363197,0.9994313716888428,0.00026663619792088866,-0.2807356119155884,0.013734030537307262,0.0,0.0,96.0,15.0,0.015,-0.0001052342340699397,-0.0006265390547923744,0.021494973450899124,-0.002110015135258436,-0.0026910866145044565,-0.00556280417367816,-0.6663498282432556,-0.22206127643585205,0.10150101780891418,0.021600881591439247,-0.005053370259702206,3.3152584819617914e-06,0.0001925768592627719,3.9536657333374023,60.0,0.0,0.0,0.0,0.0,0.0,32.766,32.766,32.766,0.403,2.857,2018.6192626953125,809.953369140625,34.81874465942383,,False,
1783642983.9764955,2026-07-09T17:23:03,14442,20260709_172258,,,,,,ground_idle,,,,,,,,,False,-0.0030012214556336403,-0.01326714362949133,0.9993787407875061,-0.2515842914581299,-0.10855308175086975,-0.12230011075735092,0.0,0.0,93.0,29.0,0.029,-0.0001052342340699397,-0.0006265390547923744,0.021494973450899124,-0.002110015135258436,-0.0026910866145044565,-0.00556280417367816,-0.6659638285636902,-0.22156694531440735,0.10207671672105789,0.021600881591439247,-0.005053370259702206,3.3152584819617914e-06,0.0001925768592627719,3.9536657333374023,60.0,0.0,0.0,0.0,0.0,0.0,32.766,32.766,32.766,0.403,2.857,2018.6192626953125,809.953369140625,34.81874465942383,,False,
1783642983.9866512,2026-07-09T17:23:03,14455,20260709_172258,,,,,,ground_idle,,,,,,,,,False,-0.004425056278705597,-0.011443281546235085,0.9998182654380798,0.25425270199775696,-0.1665966957807541,0.2052019089460373,-1.0,3.0,84.0,29.0,0.029,-0.0006035706610418856,-0.0003086604119744152,0.024665726348757744,-0.004367622081190348,-0.0011214753612875938,0.009987489320337772,-0.6659638285636902,-0.22156694531440735,0.10207671672105789,0.021600881591439247,-0.005053370259702206,3.3152584819617914e-06,0.0001925768592627719,3.9536657333374023,60.0,0.0,0.0,0.0,0.0,0.0,32.766,32.766,32.766,0.403,2.857,2018.6192626953125,809.953369140625,34.81874465942383,,False,
1783642983.9968085,2026-07-09T17:23:03,14467,20260709_172258,,,,,,ground_idle,,,,,,,,,False,-0.003728423034772277,-0.012118121609091759,0.9987111687660217,0.02870490401983261,0.46848493814468384,0.2662394940853119,0.0,-1.0,87.0,29.0,0.029,-0.0006035706610418856,-0.0003086604119744152,0.024665726348757744,-0.004367622081190348,-0.0011214753612875938,0.009987489320337772,-0.6794469356536865,-0.20051813125610352,0.10187464952468872,0.024767117574810982,0.009916563518345356,3.4134557154175127e-06,0.00019774705288000405,3.9536657333374023,60.0,0.0,0.0,0.0,0.0,0.0,32.766,32.766,32.766,0.403,2.857,2018.6192626953125,809.953369140625,34.81874465942383,,False,
1783642984.006958,2026-07-09T17:23:04,14476,20260709_172258,,,,,,ground_idle,,,,,,,,,False,-0.0035174498334527016,-0.01262724120169878,1.0012094974517822,0.06439068168401718,0.19065113365650177,0.0944787859916687,0.0,-1.0,97.0,29.0,0.029,-0.00036699845804832876,-0.0003150599077343941,0.0248664990067482,-0.0028462791815400124,-0.0010440739570185542,0.00993703119456768,-0.6797433495521545,-0.19637703895568848,0.10353899747133255,0.024767117574810982,0.009916563518345356,3.4134557154175127e-06,0.00019774705288000405,3.9536657333374023,60.0,0.0,0.0,0.0,0.0,0.0,0.383,32.766,32.766,0.403,2.857,2018.6192626953125,809.953369140625,34.81874465942383,,False,
1783642984.0171025,2026-07-09T17:23:04,14482,20260709_172258,,,,,,ground_idle,,,,,,,,,False,-0.004084441345185041,-0.013680069707334042,1.0018740892410278,0.04634283855557442,-0.18074995279312134,0.05572923645377159,0.0,2.0,96.0,29.0,0.029,-0.00036699845804832876,-0.0003150599077343941,0.0248664990067482,-0.0028462791815400124,-0.0010440739570185542,0.00993703119456768,-0.6797433495521545,-0.19637703895568848,0.10353899747133255,0.024767117574810982,0.009916563518345356,3.4134557154175127e-06,0.00019774705288000405,3.9536657333374023,60.0,0.0,0.0,0.0,0.0,0.0,0.383,32.766,32.766,0.403,2.857,2018.6192626953125,809.953369140625,34.81874465942383,,False,
1783642984.0272496,2026-07-09T17:23:04,14495,20260709_172258,,,,,,ground_idle,,,,,,,,,False,-0.004477596376091242,-0.01398384664207697,0.99912428855896,-0.1578650027513504,0.05002402514219284,-0.042582977563142776,1.0,-6.0,91.0,15.0,0.015,0.0006761323311366141,-0.00061070203082636,0.020757663995027542,0.002662255894392729,-0.0026907860301434994,-0.012433551251888275,-0.6797433495521545,-0.19637703895568848,0.10353899747133255,0.024767117574810982,0.009916563518345356,3.4134557154175127e-06,0.00019774705288000405,3.9536657333374023,60.0,0.0,0.0,0.0,0.0,0.0,0.383,32.766,32.766,0.403,2.857,2018.6192626953125,809.953369140625,34.81874465942383,,False,
1783642984.0374122,2026-07-09T17:23:04,14502,20260709_172258,,,,,,ground_idle,,,,,,,,,False,-0.006279420107603073,-0.013613478280603886,0.9995570182800293,-0.03351379185914993,0.09671232849359512,-0.029300954192876816,-1.0,0.0,83.0,15.0,0.015,0.0006761323311366141,-0.00061070203082636,0.020757663995027542,0.002662255894392729,-0.0026907860301434994,-0.012433551251888275,-0.6800634860992432,-0.2538548409938812,0.10307680070400238,0.024767117574810982,0.009916563518345356,3.4134557154175127e-06,0.00019774705288000405,3.9536657333374023,60.0,0.0,0.0,0.0,0.0,0.0,0.383,32.766,32.766,0.403,2.857,2018.6192626953125,809.953369140625,34.81874465942383,,False,
1783642984.0475793,2026-07-09T17:23:04,14515,20260709_172258,,,,,,arming,,,,,,,,,False,-0.005988941993564367,-0.011660353280603886,1.0001987218856812,0.1854172796010971,0.5147907733917236,0.07199402153491974,0.0,3.0,94.0,15.0,0.015,-0.0010467413812875748,-9.643226803746074e-05,0.020510101690888405,-0.006532571278512478,-0.00020212476374581456,-0.012584447860717773,-0.6800634860992432,-0.2538548409938812,0.10307680070400238,0.024767117574810982,0.009916563518345356,3.4134557154175127e-06,0.00019774705288000405,3.9536657333374023,60.0,0.0,0.0,0.0,0.0,0.0,0.383,32.766,32.766,0.403,2.857,2018.6192626953125,809.953369140625,34.81874465942383,,False,
1783642984.0577507,2026-07-09T17:23:04,14522,20260709_172258,,,,,,arming,,,,,,,,,False,-0.005147213581949472,-0.011832733638584614,1.000464677810669,-0.11496353894472122,0.04548553749918938,-0.09135672450065613,-1.0,4.0,94.0,15.0,0.015,-0.0010467413812875748,-9.643226803746074e-05,0.020510101690888405,-0.006532571278512478,-0.00020212476374581456,-0.012584447860717773,-0.6914293766021729,-0.18400268256664276,0.10295039415359497,0.020510101690888405,-0.012606767937541008,3.315245976409642e-06,0.0001925766991917044,3.9536657333374023,60.0,0.0,0.0,0.0,0.0,0.0,0.383,32.766,0.293,0.398,2.843,2018.6793212890625,809.9483642578125,34.823795318603516,,False,
1783642984.0679095,2026-07-09T17:23:04,14536,20260709_172258,,,,,,arming,,,,,,,,,False,-0.0036807262804359198,-0.012411985546350479,0.998382031917572,-0.2440968006849289,0.0692359134554863,0.15808303654193878,0.0,-2.0,97.0,15.0,0.015,-8.724049985175952e-05,-0.0007996680797077715,0.020270781591534615,-0.0014146839966997504,-0.003731284523382783,-0.012436797842383385,-0.6620578169822693,-0.2297627478837967,0.1025552973151207,0.020510101690888405,-0.012606767937541008,3.315245976409642e-06,0.0001925766991917044,3.9536657333374023,60.0,0.0,0.0,0.0,0.0,0.0,0.383,32.766,0.293,0.398,2.843,2018.6793212890625,809.9483642578125,34.823795318603516,,False,
1783642984.078073,2026-07-09T17:23:04,14542,20260709_172258,,,,,,arming,,,,,,,,,False,-0.003304184414446354,-0.012300970032811165,0.9993117451667786,-0.08442021906375885,-0.16194617748260498,-0.04911276325583458,3.0,-2.0,95.0,30.0,0.03,-8.724049985175952e-05,-0.0007996680797077715,0.020270781591534615,-0.0014146839966997504,-0.003731284523382783,-0.012436797842383385,-0.6620578169822693,-0.2297627478837967,0.1025552973151207,0.020510101690888405,-0.012606767937541008,3.315245976409642e-06,0.0001925766991917044,3.9536657333374023,60.0,0.0,0.0,0.0,0.0,0.0,0.383,32.766,0.293,0.398,2.843,2018.6793212890625,809.9483642578125,34.823795318603516,,False,
1783642984.0882277,2026-07-09T17:23:04,14556,20260709_172258,,,,,,arming,,,,,,,,,False,-0.0032897063065320253,-0.014100359752774239,1.0020939111709595,-0.04064043238759041,-0.08580850064754486,0.10199660062789917,-2.0,-3.0,85.0,30.0,0.03,0.0006514974520541728,-0.0002947976754512638,0.024276072159409523,0.0024808512534946203,-0.0010991175659000874,0.0077039748430252075,-0.6824079751968384,-0.25838103890419006,0.1019965410232544,0.020510101690888405,-0.012606767937541008,3.315245976409642e-06,0.0001925766991917044,3.9536657333374023,60.0,0.0,0.0,0.0,0.0,0.0,0.383,32.766,0.293,0.398,2.843,2018.6793212890625,809.9483642578125,34.823795318603516,,False,
1783642984.098382,2026-07-09T17:23:04,14568,20260709_172258,,,,,,arming,,,,,,,,,False,-0.003690329845994711,-0.01174833718687296,1.0018367767333984,-0.0067333076149225235,0.5007410049438477,0.17520032823085785,0.0,0.0,93.0,30.0,0.03,0.0006514974520541728,-0.0002947976754512638,0.024276072159409523,0.0024808512534946203,-0.0010991175659000874,0.0077039748430252075,-0.6824079751968384,-0.25838103890419006,0.1019965410232544,0.02435847744345665,0.007893870584666729,3.413450713196653e-06,0.00019774778047576547,3.958944320678711,60.0,0.0,7000.0,7000.0,7000.0,7000.0,0.383,32.766,0.293,0.398,2.843,2018.6793212890625,809.9483642578125,34.823795318603516,,False,
1783642984.1085815,2026-07-09T17:23:04,14576,20260709_172258,,,,,,arming,,,,,,,,,False,-0.004978723358362913,-0.014053151942789555,1.001205563545227,0.04710904136300087,0.038867153227329254,-0.10236745327711105,0.0,3.0,99.0,30.0,0.03,-8.174072718247771e-05,-0.0003031404921784997,0.024438560009002686,-0.0012247123522683978,-0.0012088434305042028,0.008104400709271431,-0.6818457841873169,-0.23321767151355743,0.10282178968191147,0.02435847744345665,0.007893870584666729,3.413450713196653e-06,0.00019774778047576547,3.958944320678711,60.0,0.0,7000.0,7000.0,7000.0,7000.0,32.766,32.766,0.293,0.398,2.843,2018.6793212890625,809.9483642578125,34.823795318603516,,False,
1783642984.1187668,2026-07-09T17:23:04,14589,20260709_172258,,,,,,arming,,,,,,,,,False,-0.0027221674099564552,-0.012764876708388329,0.999439537525177,-0.01576584205031395,-0.145326629281044,0.14024053514003754,0.0,0.0,94.0,30.0,0.03,-8.174072718247771e-05,-0.0003031404921784997,0.024438560009002686,-0.0012247123522683978,-0.0012088434305042028,0.008104400709271431,-0.6818457841873169,-0.23321767151355743,0.10282178968191147,0.02435847744345665,0.007893870584666729,3.413450713196653e-06,0.00019774778047576547,3.958944320678711,60.0,0.0,7000.0,7000.0,7000.0,7000.0,32.766,32.766,0.293,0.398,2.843,2018.6793212890625,809.9483642578125,34.823795318603516,,False,
1783642984.1289294,2026-07-09T17:23:04,14596,20260709_172258,,,,,,arming,,,,,,,,,False,-0.0027221674099564552,-0.012764876708388329,0.999439537525177,-0.01576584205031395,-0.145326629281044,0.14024053514003754,2.0,-3.0,87.0,14.0,0.014,0.0007014523143880069,-0.0008910218602977693,0.02005656622350216,0.0027063286397606134,-0.004239713307470083,-0.015598873607814312,-0.6715967655181885,-0.24459564685821533,0.1031862124800682,0.02435847744345665,0.007893870584666729,3.413450713196653e-06,0.00019774778047576547,3.958944320678711,60.0,0.0,7000.0,7000.0,7000.0,7000.0,32.766,32.766,0.293,0.398,2.843,2018.6793212890625,809.9483642578125,34.823795318603516,,False,
1783642984.139088,2026-07-09T17:23:04,14609,20260709_172258,,,,,,arming,,,,,,,,,False,-0.004097754135727882,-0.012017211876809597,0.999806821346283,0.038779374212026596,0.03463894501328468,-0.03058018535375595,-1.0,2.0,87.0,14.0,0.014,0.0007014523143880069,-0.0008910218602977693,0.02005656622350216,0.0027063286397606134,-0.004239713307470083,-0.015598873607814312,-0.6715967655181885,-0.24459564685821533,0.1031862124800682,0.02435847744345665,0.007893870584666729,3.413450713196653e-06,0.00019774778047576547,3.958944320678711,60.0,0.0,7000.0,7000.0,7000.0,7000.0,32.766,32.766,0.293,0.398,2.843,2018.6793212890625,809.9483642578125,34.823795318603516,,False,
1783642984.1492364,2026-07-09T17:23:04,14618,20260709_172258,,,,,,arming,,,,,,,,,False,-0.004097754135727882,-0.012017211876809597,0.999806821346283,0.038779374212026596,0.03463894501328468,-0.03058018535375595,-5.0,5.0,98.0,14.0,0.014,-8.307404641527683e-05,-0.0008213912951759994,0.019771775230765343,-0.0006738620577380061,-0.0041262428276240826,-0.015521178022027016,-0.6600812673568726,-0.23488202691078186,0.10332934558391571,0.019771775230765343,-0.015570362098515034,3.315216190458159e-06,0.00019257725216448307,3.9536657333374023,60.0,0.0,7000.0,7000.0,7000.0,7000.0,32.766,32.766,0.293,0.398,2.843,2018.6793212890625,809.9483642578125,34.823795318603516,,False,
1783642984.1593819,2026-07-09T17:23:04,14622,20260709_172258,,,,,,arming,,,,,,,,,False,-0.00562475249171257,-0.012696282006800175,0.9996024966239929,0.06799712777137756,-0.17196246981620789,0.21580550074577332,6.0,-4.0,88.0,14.0,0.014,-8.307404641527683e-05,-0.0008213912951759994,0.019771775230765343,-0.0006738620577380061,-0.0041262428276240826,-0.015521178022027016,-0.6600812673568726,-0.23488202691078186,0.10332934558391571,0.019771775230765343,-0.015570362098515034,3.315216190458159e-06,0.00019257725216448307,3.9536657333374023,60.0,0.0,7000.0,7000.0,7000.0,7000.0,32.766,32.766,32.766,0.396,2.842,2018.515380859375,809.962646484375,34.831111907958984,,False,
1783642984.1695275,2026-07-09T17:23:04,14639,20260709_172258,,,,,,arming,,,,,,,,,False,-0.003993337973952293,-0.014058518223464489,0.9991523027420044,0.1268312782049179,0.19928860664367676,0.02476665936410427,-1.0,3.0,89.0,14.0,0.014,-0.0008505564765073359,-0.0006030791555531323,0.019461821764707565,-0.004578585736453533,-0.0028742849826812744,-0.015628810971975327,-0.6732704639434814,-0.22496673464775085,0.10435094684362411,0.019771775230765343,-0.015570362098515034,3.315216190458159e-06,0.00019257725216448307,3.9536657333374023,60.0,0.0,7000.0,7000.0,7000.0,7000.0,32.766,32.766,32.766,0.396,2.842,2018.515380859375,809.962646484375,34.831111907958984,,False,
1783642984.1796947,2026-07-09T17:23:04,14642,20260709_172258,,,,,,arming,,,,,,,,,False,-0.003993337973952293,-0.014058518223464489,0.9991523027420044,0.1268312782049179,0.19928860664367676,0.02476665936410427,0.0,-2.0,90.0,29.0,0.029,-0.0008505564765073359,-0.0006030791555531323,0.019461821764707565,-0.004578585736453533,-0.0028742849826812744,-0.015628810971975327,-0.6732704639434814,-0.22496673464775085,0.10435094684362411,0.019771775230765343,-0.015570362098515034,3.315216190458159e-06,0.00019257725216448307,3.9536657333374023,60.0,0.0,7000.0,7000.0,7000.0,7000.0,32.766,32.766,32.766,0.396,2.842,2018.515380859375,809.962646484375,34.831111907958984,,False,
1783642984.189839,2026-07-09T17:23:04,14659,20260709_172258,,,,,,arming,,,,,,,,,False,-0.004710028879344463,-0.0111034931614995,0.9985747337341309,-0.05231180042028427,0.5167385339736938,0.24635954201221466,-1.0,-4.0,90.0,29.0,0.029,0.0006591143319383264,-0.0003125666407868266,0.023323332890868187,0.0030431579798460007,-0.001618380076251924,0.004102881532162428,-0.6726052761077881,-0.23317351937294006,0.103635273873806,0.019771775230765343,-0.015570362098515034,3.315216190458159e-06,0.00019257725216448307,3.9536657333374023,60.0,0.0,7000.0,7000.0,7000.0,7000.0,32.766,32.766,32.766,0.396,2.842,2018.515380859375,809.962646484375,34.831111907958984,,False,
1783642984.199987,2026-07-09T17:23:04,14669,20260709_172258,,,,,,arming,,,,,,,,,False,-0.004710028879344463,-0.0111034931614995,0.9985747337341309,-0.05231180042028427,0.5167385339736938,0.24635954201221466,1.0,3.0,99.0,29.0,0.029,0.0006591143319383264,-0.0003125666407868266,0.023323332890868187,0.0030431579798460007,-0.001618380076251924,0.004102881532162428,-0.6726052761077881,-0.23317351937294006,0.103635273873806,0.023367777466773987,0.003855109913274646,3.4134413908759598e-06,0.00019774770771618932,3.958944320678711,60.0,0.0,7000.0,7000.0,7000.0,7000.0,32.766,32.766,32.766,0.396,2.842,2018.515380859375,809.962646484375,34.831111907958984,,False,
1783642984.210132,2026-07-09T17:23:04,14679,20260709_172258,,,,,,arming,,,,,,,,,False,-0.004504332784563303,-0.01219905260950327,0.9970078468322754,0.09388173371553421,-0.7646891474723816,-0.7018820643424988,0.0,0.0,97.0,29.0,0.029,-0.00010303328599547967,-0.0005848280852660537,0.02340606041252613,-0.0008615611004643142,-0.0028165800031274557,0.0037646444980055094,-0.6816996335983276,-0.20250996947288513,0.1023642048239708,0.023367777466773987,0.003855109913274646,3.4134413908759598e-06,0.00019774770771618932,3.958944320678711,60.0,0.0,7000.0,7000.0,7000.0,7000.0,32.766,32.766,32.766,0.396,2.842,2018.515380859375,809.962646484375,34.831111907958984,,False,
1783642984.2202775,2026-07-09T17:23:04,14689,20260709_172258,,,,,,arming,,,,,,,,,False,-0.0043676248751580715,-0.012852204032242298,1.0000804662704468,-0.3174443244934082,-0.19965234398841858,-0.39452219009399414,-1.0,3.0,97.0,29.0,0.029,-0.00010303328599547967,-0.0005848280852660537,0.02340606041252613,-0.0008615611004643142,-0.0028165800031274557,0.0037646444980055094,-0.6816996335983276,-0.20250996947288513,0.1023642048239708,0.023367777466773987,0.003855109913274646,3.4134413908759598e-06,0.00019774770771618932,3.958944320678711,60.0,0.0,7000.0,7000.0,7000.0,7000.0,32.766,32.766,32.766,0.396,2.842,2018.515380859375,809.962646484375,34.831111907958984,,False,
1783642984.2304327,2026-07-09T17:23:04,14699,20260709_172258,,,,,,arming,,,,,,,,,False,-0.005467979237437248,-0.014392406679689884,1.0023653507232666,0.2666660249233246,0.7533094882965088,1.4514316320419312,0.0,0.0,90.0,13.0,0.013,-0.0009150736732408404,-0.00037733628414571285,0.018985843285918236,-0.004867945797741413,-0.0016278732800856233,-0.019970213994383812,-0.6729384064674377,-0.2626965045928955,0.10331328213214874,0.023367777466773987,0.003855109913274646,3.4134413908759598e-06,0.00019774770771618932,3.958944320678711,60.0,0.0,7000.0,7000.0,7000.0,7000.0,32.766,32.766,32.766,0.396,2.842,2018.515380859375,809.962646484375,34.831111907958984,,False,
1783642984.2406003,2026-07-09T17:23:04,14709,20260709_172258,,,,,,arming,,,,,,,,,False,-0.006818222347646952,-0.011517391540110111,0.9980031251907349,0.3086467683315277,0.35505008697509766,0.3563993573188782,1.0,-6.0,86.0,13.0,0.013,-0.0009150736732408404,-0.00037733628414571285,0.018985843285918236,-0.004867945797741413,-0.0016278732800856233,-0.019970213994383812,-0.6729384064674377,-0.2626965045928955,0.10331328213214874,0.023367777466773987,0.003855109913274646,3.4134413908759598e-06,0.00019774770771618932,3.958944320678711,60.0,0.0,7000.0,7000.0,7000.0,7000.0,32.766,32.766,32.766,0.396,2.842,2018.515380859375,809.962646484375,34.831111907958984,,False,
1783642984.2507727,2026-07-09T17:23:04,14719,20260709_172258,,,,,,arming,,,,,,,,,False,-0.006818222347646952,-0.011517391540110111,0.9980031251907349,0.3086467683315277,0.35505008697509766,0.3563993573188782,0.0,3.0,100.0,13.0,0.013,-9.924500045599416e-05,-0.0006280184607021511,0.018599294126033783,-0.0007559717632830143,-0.002865283051505685,-0.019922491163015366,-0.6750426888465881,-0.22579187154769897,0.10322203487157822,0.018599340692162514,-0.019959596917033195,3.3152334708574926e-06,0.00019257691747043282,3.932551383972168,60.0,0.0,7000.0,7000.0,7000.0,7000.0,32.766,32.766,32.766,0.40800000000000003,2.853,2018.515380859375,809.962646484375,34.831111907958984,,False,
1783642984.260982,2026-07-09T17:23:04,14729,20260709_172258,,,,,,arming,,,,,,,,,False,-0.0031570857390761375,-0.014156673103570938,1.0017647743225098,0.29324233531951904,-0.8393904566764832,-0.5911738276481628,0.0,1.0,90.0,13.0,0.013,-9.924500045599416e-05,-0.0006280184607021511,0.018599294126033783,-0.0007559717632830143,-0.002865283051505685,-0.019922491163015366,-0.6750426888465881,-0.22579187154769897,0.10322203487157822,0.018599340692162514,-0.019959596917033195,3.3152334708574926e-06,0.00019257691747043282,3.932551383972168,60.0,0.0,7000.0,7000.0,7000.0,7000.0,32.766,32.766,32.766,0.40800000000000003,2.853,2018.351318359375,809.9773559570312,34.83808135986328,,False,
1783642984.2711327,2026-07-09T17:23:04,14739,20260709_172258,,,,,,arming,,,,,,,,,False,-0.002763924887403846,-0.013654845766723156,1.004517674446106,0.22548004984855652,0.035495907068252563,-0.45123788714408875,0.0,0.0,95.0,13.0,0.013,-0.0003552782873157412,-0.0006431406363844872,0.018204256892204285,-0.0019939125049859285,-0.0027670073322951794,-0.019526967778801918,-0.676371157169342,-0.2706541121006012,0.1056402325630188,0.018599340692162514,-0.019959596917033195,3.3152334708574926e-06,0.00019257691747043282,3.932551383972168,60.0,0.0,7000.0,7000.0,7000.0,7000.0,32.766,32.766,32.766,0.40800000000000003,2.853,2018.351318359375,809.9773559570312,34.83808135986328,,False,
1783642984.2812822,2026-07-09T17:23:04,14749,20260709_172258,,,,,,arming,,,,,,,,,False,-0.0025037117302417755,-0.011865503154695034,1.0004589557647705,0.1026802808046341,0.903980553150177,0.5492521524429321,0.0,-4.0,88.0,27.0,0.027,-0.0003552782873157412,-0.0006431406363844872,0.018204256892204285,-0.0019939125049859285,-0.0027670073322951794,-0.019526967778801918,-0.676371157169342,-0.2706541121006012,0.1056402325630188,0.018599340692162514,-0.019959596917033195,3.3152334708574926e-06,0.00019257691747043282,3.932551383972168,60.0,0.0,7000.0,7000.0,7000.0,7000.0,32.766,32.766,32.766,0.40800000000000003,2.853,2018.351318359375,809.9773559570312,34.83808135986328,,False,
1783642984.2914305,2026-07-09T17:23:04,14759,20260709_172258,,,,,,arming,,,,,,,,,False,-0.00556201534345746,-0.011107830330729485,0.9969724416732788,0.09805011004209518,0.5580140948295593,0.6542671918869019,0.0,3.0,84.0,27.0,0.027,-7.798385922797024e-05,-0.0005944921867921948,0.02166827954351902,-0.0005707911914214492,-0.0026546374429017305,-0.0009278449579142034,-0.6854426264762878,-0.23847302794456482,0.10505571961402893,0.018599340692162514,-0.019959596917033195,3.3152334708574926e-06,0.00019257691747043282,3.932551383972168,60.0,0.0,7000.0,7000.0,7000.0,7000.0,32.766,32.766,32.766,0.40800000000000003,2.853,2018.351318359375,809.9773559570312,34.83808135986328,,False,
1783642984.3015785,2026-07-09T17:23:04,14769,20260709_172258,,,,,,arming,,,,,,,,,False,-0.002662879414856434,-0.011261917650699615,0.9982525706291199,0.3205353617668152,0.5552242994308472,-0.027004946023225784,-1.0,0.0,92.0,27.0,0.027,-7.798385922797024e-05,-0.0005944921867921948,0.02166827954351902,-0.0005707911914214492,-0.0026546374429017305,-0.0009278449579142034,-0.6854426264762878,-0.23847302794456482,0.10505571961402893,0.021658899262547493,-0.0010563147952780128,3.413450713196653e-06,0.00019774834800045937,3.9378299713134766,60.0,0.0,7000.0,7000.0,7000.0,7000.0,32.766,32.766,32.766,0.40800000000000003,2.853,2018.351318359375,809.9773559570312,34.83808135986328,,False,
1783642984.3118894,2026-07-09T17:23:04,14779,20260709_172258,,,,,,arming,,,,,,,,,False,-0.0030414198990911245,-0.013305890373885632,1.0016645193099976,0.36367863416671753,-0.004332386888563633,-1.6376227140426636,0.0,0.0,96.0,27.0,0.027,-8.26074683573097e-05,-0.0003443189198151231,0.021648205816745758,-0.00041447169496677816,-0.0010200163815170527,-0.0010980948572978377,-0.6806016564369202,-0.24446718394756317,0.10722231864929199,0.021658899262547493,-0.0010563147952780128,3.413450713196653e-06,0.00019774834800045937,3.9378299713134766,60.0,0.0,7000.0,7000.0,7000.0,7000.0,32.766,32.766,32.766,0.40800000000000003,2.853,2018.351318359375,809.9773559570312,34.83808135986328,,False,
1783642984.3221042,2026-07-09T17:23:04,14792,20260709_172258,,,,,,arming,,,,,,,,,False,-0.002634149743244052,-0.01586053892970085,1.0007407665252686,0.12939494848251343,0.21778567135334015,0.020683500915765762,2.0,-3.0,90.0,16.0,0.016,-8.26074683573097e-05,-0.0003443189198151231,0.021648205816745758,-0.00041447169496677816,-0.0010200163815170527,-0.0010980948572978377,-0.6806016564369202,-0.24446718394756317,0.10722231864929199,0.021658899262547493,-0.0010563147952780128,3.413450713196653e-06,0.00019774834800045937,3.9378299713134766,60.0,0.0,7000.0,7000.0,7000.0,7000.0,32.766,32.766,32.766,0.40800000000000003,2.853,2018.351318359375,809.9773559570312,34.83808135986328,,False,
1783642984.3322556,2026-07-09T17:23:04,14802,20260709_172258,,,,,,arming,,,,,,,,,False,-0.0017250111559405923,-0.009362592361867428,0.9982796311378479,0.04024608060717583,0.010834559798240662,0.022179609164595604,-1.0,-1.0,85.0,16.0,0.016,0.0007586851133964956,-0.0009387409081682563,0.019213393330574036,0.003955186810344458,-0.004034135024994612,-0.013813172467052937,-0.6692468523979187,-0.28737857937812805,0.10056629776954651,0.021658899262547493,-0.0010563147952780128,3.413450713196653e-06,0.00019774834800045937,3.9378299713134766,60.0,0.0,7000.0,7000.0,7000.0,7000.0,32.766,32.766,32.766,0.40800000000000003,2.853,2018.351318359375,809.9773559570312,34.83808135986328,,False,
1783642984.3424249,2026-07-09T17:23:04,14812,20260709_172258,,,,,,arming,,,,,,,,,False,-0.0022681434638798237,-0.013110741041600704,1.003364086151123,0.06902367621660233,0.811042070388794,0.9760423302650452,0.0,5.0,99.0,16.0,0.016,0.0007586851133964956,-0.0009387409081682563,0.019213393330574036,0.003955186810344458,-0.004034135024994612,-0.013813172467052937,-0.6692468523979187,-0.28737857937812805,0.10056629776954651,0.021658899262547493,-0.0010563147952780128,3.413450713196653e-06,0.00019774834800045937,3.9378299713134766,60.0,0.0,7000.0,7000.0,7000.0,7000.0,32.766,32.766,32.766,0.40800000000000003,2.853,2018.351318359375,809.9773559570312,34.83808135986328,,False,
1783642984.3525822,2026-07-09T17:23:04,14820,20260709_172258,,,,,,arming,,,,,,,,,False,-0.003318368922919035,-0.010866575874388218,1.0000008344650269,-0.3219543695449829,-0.2065770924091339,-0.23710674047470093,0.0,5.0,99.0,16.0,0.016,-9.002472506836057e-05,-0.0006306691793724895,0.018946969881653786,-0.00022354706015903503,-0.002416457049548626,-0.013912429101765156,-0.6660688519477844,-0.24407042562961578,0.09782968461513519,0.0,0.0,1.0,0.00010099999781232327,3.932551383972168,60.0,0.0,7000.0,7000.0,7000.0,7000.0,32.766,32.766,32.766,0.405,2.847,2018.351318359375,809.9773559570312,34.8438606262207,,False,
1783642984.3627453,2026-07-09T17:23:04,14832,20260709_172258,,,,,,arming,,,,,,,,,False,-0.006876066327095032,-0.011830450035631657,1.0000125169754028,0.16116274893283844,-0.35853174328804016,-0.04665923863649368,-1.0,3.0,87.0,16.0,0.016,-9.002472506836057e-05,-0.0006306691793724895,0.018946969881653786,-0.00022354706015903503,-0.002416457049548626,-0.013912429101765156,-0.6660688519477844,-0.24407042562961578,0.09782968461513519,0.0,0.0,1.0,0.00010099999781232327,3.932551383972168,60.0,0.0,7000.0,7000.0,7000.0,7000.0,32.766,32.766,32.766,0.405,2.847,2018.351318359375,809.9773559570312,34.8438606262207,,False,
1783642984.3729436,2026-07-09T17:23:04,14842,20260709_172258,,,,,,arming,,,,,,,,,False,-0.002874355763196945,-0.01223049033433199,1.0021320581436157,-0.2631468176841736,0.5465379953384399,0.43078434467315674,1.0,-6.0,88.0,27.0,0.027,-3.396183501536143e-06,-1.0369594747317024e-05,1.5254645347595215,-0.0006109268288128078,-0.0015512387035414577,0.0001835442817537114,0.006487844977527857,-0.023673972114920616,0.0024424721486866474,0.0,0.0,1.0,0.00010099999781232327,3.932551383972168,60.0,0.0,7000.0,7000.0,7000.0,7000.0,32.766,32.766,32.766,0.405,2.847,2018.351318359375,809.9773559570312,34.8438606262207,,False,
1783642984.383089,2026-07-09T17:23:04,14852,20260709_172258,,,,,,arming,,,,,,,,,False,-0.010050464421510696,-0.014166804030537605,0.9990293383598328,0.4232472777366638,-0.5795722603797913,-0.12959717214107513,0.0,0.0,91.0,27.0,0.027,-3.396183501536143e-06,-1.0369594747317024e-05,1.5254645347595215,-0.0006109268288128078,-0.0015512387035414577,0.0001835442817537114,0.006487844977527857,-0.023673972114920616,0.0024424721486866474,0.0,0.0,1.0,0.00010099999781232327,3.932551383972168,60.0,0.0,7000.0,7000.0,7000.0,7000.0,32.766,32.766,32.766,0.405,2.847,2018.351318359375,809.9773559570312,34.8438606262207,,False,
1783642984.39323,2026-07-09T17:23:04,14862,20260709_172258,,,,,,arming,,,,,,,,,False,0.0017286369111388922,-0.010458075441420078,0.9959595203399658,-0.4281696081161499,0.07703226804733276,-1.087633490562439,1.0,0.0,100.0,27.0,0.027,8.461724792141467e-05,-8.206941129174083e-05,0.02702011726796627,0.0019442628836259246,-0.004770322237163782,0.0001807269873097539,0.024196844547986984,-0.04648357257246971,0.002917112084105611,0.0,0.0,1.0,0.00010099999781232327,3.932551383972168,60.0,0.0,7000.0,7000.0,7000.0,7000.0,32.766,32.766,32.766,0.405,2.847,2018.351318359375,809.9773559570312,34.8438606262207,,False,
1783642984.4033728,2026-07-09T17:23:04,14872,20260709_172258,,,,,,arming,,,,,,,,,False,-0.010382013395428658,-0.019873740151524544,0.998996913433075,0.5967100858688354,-0.7122657299041748,-0.23896653950214386,-2.0,7.0,88.0,27.0,0.027,8.461724792141467e-05,-8.206941129174083e-05,0.02702011726796627,0.0019442628836259246,-0.004770322237163782,0.0001807269873097539,0.024196844547986984,-0.04648357257246971,0.002917112084105611,0.02703827992081642,-3.752638440346345e-05,6.372839379764628e-06,0.0001509997819084674,3.943108558654785,60.0,0.0,7000.0,7000.0,7000.0,7000.0,32.766,32.766,32.766,0.405,2.847,2018.351318359375,809.9773559570312,34.8438606262207,,False,
1783642984.413525,2026-07-09T17:23:04,14882,20260709_172258,,,,,,arming,,,,,,,,,False,0.0026181263383477926,-0.0042344508692622185,0.9977014064788818,-0.3314122259616852,0.4401862919330597,0.522610604763031,0.0,-8.0,99.0,27.0,0.027,-0.00029637242550961673,-6.79769873386249e-05,0.027036894112825394,-0.008089256472885609,-0.004597727674990892,-0.0002240023313788697,-0.03988807275891304,-0.11880350112915039,0.0018827450694516301,0.02703827992081642,-3.752638440346345e-05,6.372839379764628e-06,0.0001509997819084674,3.943108558654785,60.0,0.0,7000.0,7000.0,7000.0,7000.0,32.766,32.766,32.766,0.405,2.847,2018.351318359375,809.9773559570312,34.8438606262207,,False,
1783642984.4237843,2026-07-09T17:23:04,14892,20260709_172258,,,,,,arming,,,,,,,,,False,-0.010927927680313587,-0.019610198214650154,1.0014019012451172,0.4088960886001587,-0.06783635914325714,0.4183478355407715,0.0,0.0,87.0,17.0,0.017,-0.00029637242550961673,-6.79769873386249e-05,0.027036894112825394,-0.008089256472885609,-0.004597727674990892,-0.0002240023313788697,-0.03988807275891304,-0.11880350112915039,0.0018827450694516301,0.02703827992081642,-3.752638440346345e-05,6.372839379764628e-06,0.0001509997819084674,3.943108558654785,60.0,0.0,7000.0,7000.0,7000.0,7000.0,32.766,32.766,32.766,0.405,2.847,2018.351318359375,809.9773559570312,34.8438606262207,,False,
1783642984.4339442,2026-07-09T17:23:04,14902,20260709_172258,,,,,,arming,,,,,,,,,False,0.0006846518372185528,-0.003014423418790102,0.9987847805023193,0.0989912897348404,-0.184714213013649,-0.9372789859771729,0.0,4.0,88.0,17.0,0.017,-0.00012142842751927674,-0.0001442774955648929,0.021853875368833542,-0.0037106506060808897,-0.0061010755598545074,-0.00747942877933383,-0.04895175248384476,0.049753542989492416,-0.003187846625223756,0.02703827992081642,-3.752638440346345e-05,6.372839379764628e-06,0.0001509997819084674,3.943108558654785,60.0,0.0,7000.0,7000.0,7000.0,7000.0,32.766,32.766,32.766,0.405,2.847,2018.351318359375,809.9773559570312,34.8438606262207,,False,
1783642984.4440954,2026-07-09T17:23:04,14912,20260709_172258,,,,,,arming,,,,,,,,,False,-0.005428915843367577,-0.015742875635623932,1.0036453008651733,0.0997028723359108,0.4224749803543091,-0.29648539423942566,0.0,0.0,104.0,17.0,0.017,-0.00012142842751927674,-0.0001442774955648929,0.021853875368833542,-0.0037106506060808897,-0.0061010755598545074,-0.00747942877933383,-0.04895175248384476,0.049753542989492416,-0.003187846625223756,0.02703827992081642,-3.752638440346345e-05,6.372839379764628e-06,0.0001509997819084674,3.943108558654785,60.0,0.0,7000.0,7000.0,7000.0,7000.0,32.766,32.766,32.766,0.405,2.847,2018.351318359375,809.9773559570312,34.8438606262207,,False,
1783642984.4542434,2026-07-09T17:23:04,14922,20260709_172258,,,,,,arming,,,,,,,,,False,-0.007725293282419443,-0.009759325534105301,1.001105546951294,0.09126140177249908,-0.8934462070465088,-0.48754867911338806,0.0,1.0,96.0,17.0,0.017,-0.0002937397512141615,-0.0002511907077860087,0.021707655861973763,-0.005901771131902933,-0.007314625661820173,-0.0071402727626264095,-0.06595387309789658,0.08826445788145065,-0.0034630734007805586,0.021707655861973763,-0.007139603607356548,3.487009962555021e-06,0.00019510016136337072,3.943108558654785,60.0,0.0,7000.0,7000.0,7000.0,7000.0,32.766,32.766,0.293,0.403,2.851,2018.4989013671875,809.9639892578125,34.84642028808594,,False,
1783642984.4643843,2026-07-09T17:23:04,14932,20260709_172258,,,,,,arming,,,,,,,,,False,0.0028567640110850334,-0.013873045332729816,1.0032144784927368,-0.9237557053565979,0.7610297203063965,0.43195870518684387,0.0,-4.0,88.0,17.0,0.017,-0.0002937397512141615,-0.0002511907077860087,0.021707655861973763,-0.005901771131902933,-0.007314625661820173,-0.0071402727626264095,-0.06595387309789658,0.08826445788145065,-0.0034630734007805586,0.021707655861973763,-0.007139603607356548,3.487009962555021e-06,0.00019510016136337072,3.943108558654785,60.0,0.0,7000.0,7000.0,7000.0,7000.0,32.766,32.766,0.293,0.403,2.851,2018.4989013671875,809.9639892578125,34.84642028808594,,False,
1783642984.4745255,2026-07-09T17:23:04,14942,20260709_172258,,,,,,arming,,,,,,,,,False,-0.018268266692757607,-0.018925130367279053,1.0004926919937134,0.8010553121566772,-1.1718991994857788,0.30548229813575745,0.0,6.0,90.0,32.0,0.032,-0.0006143177743069828,-0.00031109468545764685,0.021588997915387154,-0.010343194007873535,-0.008039514534175396,-0.0067135607823729515,-0.10837990045547485,0.18349815905094147,-0.004239825531840324,0.021707655861973763,-0.007139603607356548,3.487009962555021e-06,0.00019510016136337072,3.943108558654785,60.0,0.0,7000.0,7000.0,7000.0,7000.0,32.766,32.766,0.293,0.403,2.851,2018.4989013671875,809.9639892578125,34.84642028808594,,False,
1783642984.4846818,2026-07-09T17:23:04,14952,20260709_172258,,,,,,arming,,,,,,,,,False,0.005984230432659388,-0.0070470948703587055,0.9983862638473511,-0.8276554346084595,0.8785953521728516,0.01019630953669548,1.0,0.0,84.0,32.0,0.032,-0.0006143177743069828,-0.00031109468545764685,0.021588997915387154,-0.010343194007873535,-0.008039514534175396,-0.0067135607823729515,-0.10837990045547485,0.18349815905094147,-0.004239825531840324,0.021707655861973763,-0.007139603607356548,3.487009962555021e-06,0.00019510016136337072,3.943108558654785,60.0,0.0,7000.0,7000.0,7000.0,7000.0,32.766,32.766,0.293,0.403,2.851,2018.4989013671875,809.9639892578125,34.84642028808594,,False,
1783642984.4948232,2026-07-09T17:23:04,14962,20260709_172258,,,,,,arming,,,,,,,,,False,-0.019756294786930084,-0.02179473079741001,1.00198233127594,0.8384929895401001,-0.7606540322303772,0.39412587881088257,-1.0,-1.0,98.0,32.0,0.032,-0.0005378313362598419,-0.0003603134537115693,0.02569318562746048,-0.0086793452501297,-0.008644993416965008,0.005523395724594593,-0.16457337141036987,0.07877707481384277,-0.004567618481814861,0.021707655861973763,-0.007139603607356548,3.487009962555021e-06,0.00019510016136337072,3.943108558654785,60.0,0.0,7000.0,7000.0,7000.0,7000.0,32.766,32.766,0.293,0.403,2.851,2018.4989013671875,809.9639892578125,34.84642028808594,,False,
1783642984.5049677,2026-07-09T17:23:04,14975,20260709_172258,,,,,,arming,,,,,,,,,False,0.0064181797206401825,-0.005111085716634989,0.9965465664863586,-0.30640679597854614,0.33568137884140015,-0.2832477390766144,2.0,-1.0,94.0,32.0,0.032,-0.0004888237453997135,-0.0008322435314767063,0.025804033502936363,-0.00747919175773859,-0.014091117307543755,0.005580886732786894,-0.16457337141036987,0.07877707481384277,-0.004567618481814861,0.025748401880264282,0.0055264560505747795,3.018502184204408e-06,0.00023131811758503318,3.9483871459960938,60.0,0.0,7000.0,7000.0,7000.0,7000.0,0.388,32.766,0.293,0.403,2.851,2018.4989013671875,809.9639892578125,34.84642028808594,,False,
1783642984.5151126,2026-07-09T17:23:04,14982,20260709_172258,,,,,,arming,,,,,,,,,False,-0.01650187186896801,-0.02430121786892414,1.0006654262542725,0.2445841133594513,0.37960121035575867,0.07365737110376358,-2.0,-1.0,104.0,32.0,0.032,-0.0004888237453997135,-0.0008322435314767063,0.025804033502936363,-0.00747919175773859,-0.014091117307543755,0.005580886732786894,-0.22311127185821533,-0.06585044413805008,-0.002322286367416382,0.025748401880264282,0.0055264560505747795,3.018502184204408e-06,0.00023131811758503318,3.9483871459960938,60.0,0.0,7000.0,7000.0,7000.0,7000.0,0.388,32.766,0.293,0.403,2.851,2018.4989013671875,809.9639892578125,34.84642028808594,,False,
1783642984.5252562,2026-07-09T17:23:04,14995,20260709_172258,,,,,,arming,,,,,,,,,False,0.0037061753682792187,-0.003118811408057809,0.99912428855896,0.05432793125510216,-0.9899879693984985,-0.2837376892566681,1.0,0.0,88.0,15.0,0.015,0.00025025918148458004,-0.0005693194689229131,0.021639173850417137,0.0009848951594904065,-0.010863585397601128,-0.016563329845666885,-0.22311127185821533,-0.06585044413805008,-0.002322286367416382,0.025748401880264282,0.0055264560505747795,3.018502184204408e-06,0.00023131811758503318,3.9483871459960938,60.0,0.0,7000.0,7000.0,7000.0,7000.0,0.388,32.766,0.293,0.403,2.851,2018.4989013671875,809.9639892578125,34.84642028808594,,False,
1783642984.5354,2026-07-09T17:23:04,15002,20260709_172258,,,,,,arming,,,,,,,,,False,-0.006832375191152096,-0.01923326961696148,0.9992262721061707,-0.48742496967315674,0.6026713252067566,0.05167790502309799,0.0,-3.0,89.0,15.0,0.015,0.00025025918148458004,-0.0005693194689229131,0.021639173850417137,0.0009848951594904065,-0.010863585397601128,-0.016563329845666885,-0.22180794179439545,-0.24085265398025513,-0.002735190326347947,0.025748401880264282,0.0055264560505747795,3.018502184204408e-06,0.00023131811758503318,3.9483871459960938,60.0,0.0,7000.0,7000.0,7000.0,7000.0,0.388,32.766,0.293,0.403,2.851,2018.4989013671875,809.9639892578125,34.84642028808594,,False,
1783642984.5455518,2026-07-09T17:23:04,15015,20260709_172258,,,,,,arming,,,,,,,,,False,-0.006947114132344723,-0.008942097425460815,0.9986965656280518,1.0150203704833984,-0.8095031976699829,-0.049250535666942596,0.0,-1.0,86.0,15.0,0.015,0.0004446789971552789,-0.000702728983014822,0.021306103095412254,0.0026534940116107464,-0.011745106428861618,-0.016695242375135422,-0.22180794179439545,-0.24085265398025513,-0.002735190326347947,0.025748401880264282,0.0055264560505747795,3.018502184204408e-06,0.00023131811758503318,3.9483871459960938,60.0,0.0,7000.0,7000.0,7000.0,7000.0,0.388,32.766,0.293,0.403,2.851,2018.4989013671875,809.9639892578125,34.84642028808594,,False,
1783642984.5557234,2026-07-09T17:23:04,15022,20260709_172258,,,,,,arming,,,,,,,,,False,0.006552654318511486,-0.011617437936365604,1.0021697282791138,-1.063267469406128,1.4174617528915405,0.5036470890045166,0.0,0.0,95.0,15.0,0.015,0.0004446789971552789,-0.000702728983014822,0.021306103095412254,0.0026534940116107464,-0.011745106428861618,-0.016695242375135422,-0.2483837604522705,-0.2778204083442688,-0.0032328092493116856,0.021306103095412254,-0.016732970252633095,3.0543146749550942e-06,0.0002390427398495376,3.943108558654785,60.0,0.0,7000.0,7000.0,7000.0,7000.0,0.388,32.766,32.766,32.766,2.851,2018.4443359375,809.9691772460938,34.84905242919922,,False,
1783642984.5658665,2026-07-09T17:23:04,15036,20260709_172258,,,,,,arming,,,,,,,,,False,-0.020260833203792572,-0.017179414629936218,1.0008569955825806,1.1557376384735107,-1.6930768489837646,0.16071631014347076,0.0,0.0,90.0,15.0,0.015,-0.0011843987740576267,-0.0008063632412813604,0.02099357731640339,-0.013840898871421814,-0.011851917952299118,-0.016400450840592384,-0.2860995829105377,0.12540851533412933,-0.002996060298755765,0.021306103095412254,-0.016732970252633095,3.0543146749550942e-06,0.0002390427398495376,3.943108558654785,60.0,0.0,7000.0,7000.0,7000.0,7000.0,0.388,32.766,32.766,32.766,2.851,2018.4443359375,809.9691772460938,34.84905242919922,,False,
1783642984.5760245,2026-07-09T17:23:04,15042,20260709_172258,,,,,,arming,,,,,,,,,False,0.014533075504004955,-0.007040728814899921,1.000637173652649,-1.3103742599487305,1.5269310474395752,0.17438358068466187,0.0,7.0,83.0,27.0,0.027,-0.0011843987740576267,-0.0008063632412813604,0.02099357731640339,-0.013840898871421814,-0.011851917952299118,-0.016400450840592384,-0.2860995829105377,0.12540851533412933,-0.002996060298755765,0.021306103095412254,-0.016732970252633095,3.0543146749550942e-06,0.0002390427398495376,3.943108558654785,60.0,0.0,7000.0,7000.0,7000.0,7000.0,0.388,32.766,32.766,32.766,2.851,2018.4443359375,809.9691772460938,34.84905242919922,,False,
1783642984.5861669,2026-07-09T17:23:04,15056,20260709_172258,,,,,,arming,,,,,,,,,False,-0.025923527777194977,-0.02122456021606922,0.9951729774475098,1.4537392854690552,-1.4664726257324219,0.02594931237399578,0.0,-6.0,87.0,27.0,0.027,-0.00025020085740834475,-0.0007895933231338859,0.02324444241821766,-0.00378905376419425,-0.010682701133191586,-0.002944766776636243,-0.3460198938846588,-0.12077762931585312,-0.002532657003030181,0.021306103095412254,-0.016732970252633095,3.0543146749550942e-06,0.0002390427398495376,3.943108558654785,60.0,0.0,7000.0,7000.0,7000.0,7000.0,0.388,32.766,32.766,32.766,2.851,2018.4443359375,809.9691772460938,34.84905242919922,,False,
1783642984.5963092,2026-07-09T17:23:04,15062,20260709_172258,,,,,,arming,,,,,,,,,False,0.020445188507437706,-0.004613423720002174,1.004067063331604,-1.1641497611999512,1.6196783781051636,-0.011763488873839378,0.0,2.0,98.0,27.0,0.027,-0.00025020085740834475,-0.0007895933231338859,0.02324444241821766,-0.00378905376419425,-0.010682701133191586,-0.002944766776636243,-0.3460198938846588,-0.12077762931585312,-0.002532657003030181,0.021306103095412254,-0.016732970252633095,3.0543146749550942e-06,0.0002390427398495376,3.943108558654785,60.0,0.0,7000.0,7000.0,7000.0,7000.0,0.388,32.766,32.766,32.766,2.851,2018.4443359375,809.9691772460938,34.84905242919922,,False,
1783642984.6064522,2026-07-09T17:23:04,15075,20260709_172258,,,,,,arming,,,,,,,,,False,-0.02269400656223297,-0.018481429666280746,1.0015496015548706,0.6756677627563477,-0.6286123991012573,-0.041907064616680145,0.0,1.0,87.0,27.0,0.027,-0.0004826329241041094,-0.0008494758512824774,0.02318570576608181,-0.004856471437960863,-0.01029282808303833,-0.0026546085719019175,-0.3460198938846588,-0.12077762931585312,-0.002532657003030181,0.02321474626660347,-0.003225125838071108,3.3931164580280893e-06,0.00024094113905448467,3.943108558654785,60.0,0.0,7000.0,7000.0,7000.0,7000.0,32.766,32.766,32.766,32.766,2.851,2018.4443359375,809.9691772460938,34.84905242919922,,False,
1783642984.616594,2026-07-09T17:23:04,15082,20260709_172258,,,,,,arming,,,,,,,,,False,0.016812916845083237,-0.007953665219247341,1.0035226345062256,-0.3688846528530121,-0.5537378191947937,-0.37374281883239746,-1.0,0.0,101.0,27.0,0.027,-0.0004826329241041094,-0.0008494758512824774,0.02318570576608181,-0.004856471437960863,-0.01029282808303833,-0.0026546085719019175,-0.44034329056739807,-0.10031552612781525,-0.00197311257943511,0.02321474626660347,-0.003225125838071108,3.3931164580280893e-06,0.00024094113905448467,3.943108558654785,60.0,0.0,7000.0,7000.0,7000.0,7000.0,32.766,32.766,32.766,32.766,2.851,2018.4443359375,809.9691772460938,34.84905242919922,,False,
1783642984.6267872,2026-07-09T17:23:04,15096,20260709_172258,,,,,,arming,,,,,,,,,False,-0.02378508448600769,-0.021799392998218536,0.9982596635818481,-0.2251979410648346,0.2060791552066803,0.22937437891960144,1.0,-4.0,87.0,17.0,0.017,0.0005814352189190686,-0.0007969515863806009,0.020467782393097878,0.004901524167507887,-0.009551393799483776,-0.01769857481122017,-0.4167759120464325,-0.2907244861125946,-0.00256115710362792,0.02321474626660347,-0.003225125838071108,3.3931164580280893e-06,0.00024094113905448467,3.943108558654785,60.0,0.0,7000.0,7000.0,7000.0,7000.0,32.766,32.766,32.766,32.766,2.851,2018.4443359375,809.9691772460938,34.84905242919922,,False,
1783642984.6369364,2026-07-09T17:23:04,15102,20260709_172258,,,,,,arming,,,,,,,,,False,0.009503953158855438,-0.007259363774210215,0.9976667761802673,-0.0513845831155777,-0.9674739837646484,-0.19104020297527313,0.0,0.0,90.0,17.0,0.017,0.0005814352189190686,-0.0007969515863806009,0.020467782393097878,0.004901524167507887,-0.009551393799483776,-0.01769857481122017,-0.4167759120464325,-0.2907244861125946,-0.00256115710362792,0.02321474626660347,-0.003225125838071108,3.3931164580280893e-06,0.00024094113905448467,3.943108558654785,60.0,0.0,7000.0,7000.0,7000.0,7000.0,32.766,32.766,32.766,32.766,2.851,2018.4443359375,809.9691772460938,34.84905242919922,,False,
1783642984.6470854,2026-07-09T17:23:04,15117,20260709_172258,,,,,,arming,,,,,,,,,False,-0.009958579204976559,-0.015012986958026886,1.0017057657241821,-0.26566797494888306,1.2442244291305542,0.26724883913993835,-1.0,7.0,93.0,17.0,0.017,-0.0006991449627093971,-0.0004748793435283005,0.020133251324295998,-0.005708045791834593,-0.0064232065342366695,-0.01787508651614189,-0.5012046098709106,-0.07444880902767181,-0.00014485018618870527,0.020133251324295998,-0.017938027158379555,3.436180804783362e-06,0.00022117469052318484,3.943108558654785,60.0,0.0,7000.0,7000.0,7000.0,7000.0,32.766,32.766,32.766,32.766,2.851,2018.4443359375,809.9691772460938,34.84905242919922,,False,
1783642984.6572306,2026-07-09T17:23:04,15122,20260709_172258,,,,,,arming,,,,,,,,,False,0.002452622167766094,-0.005603151395916939,0.999792218208313,0.5955140590667725,-1.707800030708313,-0.46788695454597473,0.0,-2.0,98.0,17.0,0.017,-0.0006991449627093971,-0.0004748793435283005,0.020133251324295998,-0.005708045791834593,-0.0064232065342366695,-0.01787508651614189,-0.5012046098709106,-0.07444880902767181,-0.00014485018618870527,0.020133251324295998,-0.017938027158379555,3.436180804783362e-06,0.00022117469052318484,3.943108558654785,60.0,0.0,7000.0,7000.0,7000.0,7000.0,32.766,32.766,32.766,0.405,2.855,2018.4224853515625,809.9710693359375,34.845726013183594,,False,
1783642984.6673753,2026-07-09T17:23:04,15136,20260709_172258,,,,,,arming,,,,,,,,,False,-0.00126687902957201,-0.014727243222296238,1.0028398036956787,-0.46780937910079956,1.850623607635498,0.2868199944496155,1.0,2.0,93.0,17.0,0.017,0.000635971431620419,-0.0009399568662047386,0.019794264808297157,0.005818507634103298,-0.009299958124756813,-0.01759326457977295,-0.45069918036460876,-0.297453373670578,-0.0014412850141525269,0.020133251324295998,-0.017938027158379555,3.436180804783362e-06,0.00022117469052318484,3.943108558654785,60.0,0.0,7000.0,7000.0,7000.0,7000.0,32.766,32.766,32.766,0.405,2.855,2018.4224853515625,809.9710693359375,34.845726013183594,,False,
1783642984.6775494,2026-07-09T17:23:04,15142,20260709_172258,,,,,,arming,,,,,,,,,False,-0.008594268001616001,-0.005344996228814125,0.9963676333427429,0.6565719842910767,-1.9049469232559204,-0.021025003865361214,1.0,-7.0,82.0,29.0,0.029,0.000635971431620419,-0.0009399568662047386,0.019794264808297157,0.005818507634103298,-0.009299958124756813,-0.01759326457977295,-0.45069918036460876,-0.297453373670578,-0.0014412850141525269,0.020133251324295998,-0.017938027158379555,3.436180804783362e-06,0.00022117469052318484,3.943108558654785,60.0,0.0,7000.0,7000.0,7000.0,7000.0,32.766,32.766,32.766,0.405,2.855,2018.4224853515625,809.9710693359375,34.845726013183594,,False,
1783642984.68775,2026-07-09T17:23:04,15156,20260709_172258,,,,,,arming,,,,,,,,,False,0.004732642322778702,-0.014499036595225334,1.0027421712875366,-0.750663697719574,1.5664539337158203,0.4661393165588379,-2.0,5.0,90.0,29.0,0.029,-0.00039357904461212456,-0.00040739827090874314,0.0236418005079031,-0.0023355926387012005,-0.00411884393543005,0.00369278690777719,-0.5516517758369446,-0.1450338363647461,-0.0024094069376587868,0.020133251324295998,-0.017938027158379555,3.436180804783362e-06,0.00022117469052318484,3.943108558654785,60.0,0.0,7000.0,7000.0,7000.0,7000.0,32.766,32.766,32.766,0.405,2.855,2018.4224853515625,809.9710693359375,34.845726013183594,,False,
1783642984.697919,2026-07-09T17:23:04,15168,20260709_172258,,,,,,arming,,,,,,,,,False,-0.015001912601292133,-0.008069232106208801,0.996978223323822,1.2359514236450195,-2.0738468170166016,-0.054815784096717834,0.0,-1.0,99.0,29.0,0.029,-0.00039357904461212456,-0.00040739827090874314,0.0236418005079031,-0.0023355926387012005,-0.00411884393543005,0.00369278690777719,-0.5516517758369446,-0.1450338363647461,-0.0024094069376587868,0.0236771572381258,0.0035083801485598087,3.5912676139560062e-06,0.00021514794207178056,3.9483871459960938,60.0,0.0,7000.0,7000.0,7000.0,7000.0,32.766,32.766,32.766,0.405,2.855,2018.4224853515625,809.9710693359375,34.845726013183594,,False,
1783642984.7080684,2026-07-09T17:23:04,15176,20260709_172258,,,,,,arming,,,,,,,,,False,0.014568204060196877,-0.014578231610357761,1.0044983625411987,-0.6631008982658386,1.741731882095337,0.7541217803955078,0.0,3.0,93.0,29.0,0.029,-0.0012199869379401207,-0.0004294109530746937,0.023713117465376854,-0.008131271228194237,-0.004007852636277676,0.0036366546992212534,-0.5626674294471741,-0.030053921043872833,-0.0006709592998959124,0.0236771572381258,0.0035083801485598087,3.5912676139560062e-06,0.00021514794207178056,3.9483871459960938,60.0,0.0,7000.0,7000.0,7000.0,7000.0,32.766,32.766,32.766,0.405,2.855,2018.4224853515625,809.9710693359375,34.845726013183594,,False,
1783642984.718215,2026-07-09T17:23:04,15182,20260709_172258,,,,,,arming,,,,,,,,,False,-0.02475832961499691,-0.008021758869290352,0.9976187348365784,1.1924673318862915,-1.9290162324905396,-0.08399870246648788,0.0,1.0,100.0,29.0,0.029,-0.0012199869379401207,-0.0004294109530746937,0.023713117465376854,-0.008131271228194237,-0.004007852636277676,0.0036366546992212534,-0.5626674294471741,-0.030053921043872833,-0.0006709592998959124,0.0236771572381258,0.0035083801485598087,3.5912676139560062e-06,0.00021514794207178056,3.9483871459960938,60.0,0.0,7000.0,7000.0,7000.0,7000.0,32.766,32.766,32.766,0.405,2.855,2018.4224853515625,809.9710693359375,34.845726013183594,,False,
1783642984.7283597,2026-07-09T17:23:04,15196,20260709_172258,,,,,,arming,,,,,,,,,False,0.01642218418419361,-0.015456723980605602,1.0052578449249268,-0.7646939158439636,1.715514898300171,0.5349668860435486,0.0,-4.0,88.0,13.0,0.013,0.0004412413982208818,-0.0005899174138903618,0.01900135912001133,0.00411752425134182,-0.0049368878826498985,-0.021916959434747696,-0.542273759841919,-0.26360005140304565,-0.0014657789142802358,0.0236771572381258,0.0035083801485598087,3.5912676139560062e-06,0.00021514794207178056,3.9483871459960938,60.0,0.0,7000.0,7000.0,7000.0,7000.0,32.766,32.766,32.766,0.405,2.855,2018.4224853515625,809.9710693359375,34.845726013183594,,False,
1783642984.7385087,2026-07-09T17:23:04,15202,20260709_172258,,,,,,arming,,,,,,,,,False,-0.02799864299595356,-0.007445385679602623,0.9957247376441956,0.670653223991394,-2.139099597930908,-0.1817992925643921,1.0,-3.0,85.0,13.0,0.013,0.0004412413982208818,-0.0005899174138903618,0.01900135912001133,0.00411752425134182,-0.0049368878826498985,-0.021916959434747696,-0.542273759841919,-0.26360005140304565,-0.0014657789142802358,0.0236771572381258,0.0035083801485598087,3.5912676139560062e-06,0.00021514794207178056,3.9483871459960938,60.0,0.0,7000.0,7000.0,7000.0,7000.0,32.766,32.766,32.766,0.405,2.855,2018.4224853515625,809.9710693359375,34.845726013183594,,False,
1783642984.7487156,2026-07-09T17:23:04,15218,20260709_172258,,,,,,arming,,,,,,,,,False,0.01727847382426262,-0.016045456752181053,1.0026735067367554,-0.5295941829681396,1.8386056423187256,0.501220703125,0.0,3.0,91.0,13.0,0.013,0.00044263844029046595,-0.00032399946940131485,0.018574481830000877,0.0036837507504969835,-0.0025542525108903646,-0.021685374900698662,-0.5852501392364502,-0.2517252266407013,-0.001065778429619968,0.018574481830000877,-0.021693984046578407,3.4546560527815018e-06,0.00020036690693814307,3.943108558654785,60.0,0.0,7000.0,7000.0,7000.0,7000.0,32.766,32.766,32.766,0.405,2.855,2018.4224853515625,809.9710693359375,34.845726013183594,,False,
1783642984.7588952,2026-07-09T17:23:04,15229,20260709_172258,,,,,,arming,,,,,,,,,False,0.01948912814259529,-0.014133450575172901,1.0024428367614746,-0.827001690864563,1.3893426656723022,0.19625228643417358,-1.0,-3.0,97.0,13.0,0.013,0.00044263844029046595,-0.00032399946940131485,0.018574481830000877,0.0036837507504969835,-0.0025542525108903646,-0.021685374900698662,-0.5852501392364502,-0.2517252266407013,-0.001065778429619968,0.018574481830000877,-0.021693984046578407,3.4546560527815018e-06,0.00020036690693814307,3.943108558654785,60.0,0.0,7000.0,7000.0,7000.0,7000.0,32.766,32.766,32.766,32.766,2.852,2018.4278564453125,809.9702758789062,34.833892822265625,,False,
1783642984.7690399,2026-07-09T17:23:04,15239,20260709_172258,,,,,,arming,,,,,,,,,False,-0.02740786224603653,-0.009573147632181644,0.9954606890678406,1.110144019126892,-1.1666594743728638,-0.3300134539604187,1.0,3.0,88.0,13.0,0.013,0.0004536122432909906,-0.0005633282125927508,0.018151776865124702,0.0031400539446622133,-0.003991303034126759,-0.021849973127245903,-0.563681423664093,-0.24974040687084198,-6.332453267532401e-06,0.018574481830000877,-0.021693984046578407,3.4546560527815018e-06,0.00020036690693814307,3.943108558654785,60.0,0.0,7000.0,7000.0,7000.0,7000.0,32.766,32.766,32.766,32.766,2.852,2018.4278564453125,809.9702758789062,34.833892822265625,,False,
1783642984.779189,2026-07-09T17:23:04,15249,20260709_172258,,,,,,arming,,,,,,,,,False,0.017827754840254784,-0.011209764517843723,1.001357078552246,-0.6697071194648743,1.1614432334899902,0.11108474433422089,0.0,-3.0,83.0,30.0,0.03,0.0004536122432909906,-0.0005633282125927508,0.018151776865124702,0.0031400539446622133,-0.003991303034126759,-0.021849973127245903,-0.563681423664093,-0.24974040687084198,-6.332453267532401e-06,0.018574481830000877,-0.021693984046578407,3.4546560527815018e-06,0.00020036690693814307,3.943108558654785,60.0,0.0,7000.0,7000.0,7000.0,7000.0,32.766,32.766,32.766,32.766,2.852,2018.4278564453125,809.9702758789062,34.833892822265625,,False,
1783642984.7893333,2026-07-09T17:23:04,15259,20260709_172258,,,,,,arming,,,,,,,,,False,-0.025449732318520546,-0.010934880003333092,0.9976062178611755,0.786924421787262,-0.456106960773468,-0.23051244020462036,0.0,7.0,88.0,30.0,0.03,-0.001250151894055307,0.00019308114133309573,0.023058677092194557,-0.00835710670799017,0.0014673384139314294,0.003590591251850128,-0.6482052803039551,-0.07905466854572296,-0.0010194728383794427,0.018574481830000877,-0.021693984046578407,3.4546560527815018e-06,0.00020036690693814307,3.943108558654785,60.0,0.0,7000.0,7000.0,7000.0,7000.0,32.766,32.766,32.766,32.766,2.852,2018.4278564453125,809.9702758789062,34.833892822265625,,False,
1783642984.799477,2026-07-09T17:23:04,15269,20260709_172258,,,,,,arming,,,,,,,,,False,-0.025449732318520546,-0.010934880003333092,0.9976062178611755,0.786924421787262,-0.456106960773468,-0.23051244020462036,-3.0,0.0,97.0,30.0,0.03,-0.001250151894055307,0.00019308114133309573,0.023058677092194557,-0.00835710670799017,0.0014673384139314294,0.003590591251850128,-0.6482052803039551,-0.07905466854572296,-0.0010194728383794427,0.023106802254915237,0.003808532143011689,3.5151444990333403e-06,0.00020096047956030816,3.9483871459960938,60.0,0.0,7000.0,7000.0,7000.0,7000.0,32.766,32.766,32.766,32.766,2.852,2018.4278564453125,809.9702758789062,34.833892822265625,,False,
1783642984.80962,2026-07-09T17:23:04,15276,20260709_172258,,,,,,arming,,,,,,,,,False,0.01731967180967331,-0.012163173407316208,1.000769853591919,-0.9930811524391174,0.5607174634933472,-0.03243906423449516,3.0,-2.0,92.0,30.0,0.03,-0.0008440884412266314,-0.0005920720868743956,0.023144181817770004,-0.005173340439796448,-0.003779953345656395,0.00361672043800354,-0.6695223450660706,-0.14141856133937836,0.0008693407289683819,0.023106802254915237,0.003808532143011689,3.5151444990333403e-06,0.00020096047956030816,3.9483871459960938,60.0,0.0,7000.0,7000.0,7000.0,7000.0,32.766,32.766,32.766,32.766,2.852,2018.4278564453125,809.9702758789062,34.833892822265625,,False,
1783642984.819792,2026-07-09T17:23:04,15289,20260709_172258,,,,,,arming,,,,,,,,,False,0.01727093569934368,-0.007410408928990364,1.0002933740615845,-0.7153608798980713,0.3018731474876404,-0.1587073653936386,-4.0,0.0,96.0,30.0,0.03,-0.0008440884412266314,-0.0005920720868743956,0.023144181817770004,-0.005173340439796448,-0.003779953345656395,0.00361672043800354,-0.6695223450660706,-0.14141856133937836,0.0008693407289683819,0.023106802254915237,0.003808532143011689,3.5151444990333403e-06,0.00020096047956030816,3.9483871459960938,60.0,0.0,7000.0,7000.0,7000.0,7000.0,32.766,32.766,32.766,32.766,2.852,2018.4278564453125,809.9702758789062,34.833892822265625,,False,
1783642984.829938,2026-07-09T17:23:04,15299,20260709_172258,,,,,,arming,,,,,,,,,False,-0.014630640856921673,-0.014162448234856129,1.0028256177902222,0.17278467118740082,0.1684660166501999,-0.42402225732803345,2.0,-6.0,85.0,16.0,0.016,-0.00027097572456113994,-0.0003123761562164873,0.020085277035832405,-0.0011969637125730515,-0.0025862036272883415,-0.013057216070592403,-0.5974023342132568,-0.1869271695613861,0.000487966783111915,0.023106802254915237,0.003808532143011689,3.5151444990333403e-06,0.00020096047956030816,3.9483871459960938,60.0,0.0,7000.0,7000.0,7000.0,7000.0,32.766,32.766,32.766,32.766,2.852,2018.4278564453125,809.9702758789062,34.833892822265625,,False,
1783642984.840086,2026-07-09T17:23:04,15309,20260709_172258,,,,,,arming,,,,,,,,,False,0.0114539610221982,-0.0019526885589584708,1.003520131111145,-0.2820134460926056,0.07994093745946884,0.3048231601715088,1.0,4.0,87.0,16.0,0.016,-0.00027097572456113994,-0.0003123761562164873,0.020085277035832405,-0.0011969637125730515,-0.0025862036272883415,-0.013057216070592403,-0.5974023342132568,-0.1869271695613861,0.000487966783111915,0.023106802254915237,0.003808532143011689,3.5151444990333403e-06,0.00020096047956030816,3.9483871459960938,60.0,0.0,7000.0,7000.0,7000.0,7000.0,32.766,32.766,32.766,32.766,2.852,2018.4278564453125,809.9702758789062,34.833892822265625,,False,
1783642984.8502405,2026-07-09T17:23:04,15319,20260709_172258,,,,,,arming,,,,,,,,,False,-0.014641162939369678,-0.019990896806120872,1.004086971282959,0.4632910192012787,0.31859275698661804,-0.2531631290912628,0.0,0.0,97.0,16.0,0.016,0.0005351907457225025,-0.0003186118265148252,0.019827309995889664,0.0045568253844976425,-0.0022675583604723215,-0.012737197801470757,-0.6023451089859009,-0.2578907608985901,0.0007208074675872922,0.019827309995889664,-0.01273972075432539,3.3703197459544754e-06,0.0001932644663611427,3.943108558654785,60.0,0.0,7000.0,7000.0,7000.0,7000.0,32.766,32.766,0.291,0.401,2.86,2018.4278564453125,809.9702758789062,34.833892822265625,,False,
1783642984.860391,2026-07-09T17:23:04,15329,20260709_172258,,,,,,arming,,,,,,,,,False,0.0025841793976724148,-0.004045667592436075,0.9974390864372253,-0.29276469349861145,-0.8098969459533691,0.28243035078048706,0.0,-3.0,100.0,16.0,0.016,0.0005351907457225025,-0.0003186118265148252,0.019827309995889664,0.0045568253844976425,-0.0022675583604723215,-0.012737197801470757,-0.6023451089859009,-0.2578907608985901,0.0007208074675872922,0.019827309995889664,-0.01273972075432539,3.3703197459544754e-06,0.0001932644663611427,3.943108558654785,60.0,0.0,7000.0,7000.0,7000.0,7000.0,32.766,32.766,0.291,0.401,2.86,2018.47705078125,809.9663696289062,34.82221984863281,,False,
1783642984.8705368,2026-07-09T17:23:04,15339,20260709_172258,,,,,,arming,,,,,,,,,False,-0.010090699419379234,-0.02102065645158291,1.0020506381988525,0.22276847064495087,0.5911217331886292,0.24934297800064087,-1.0,6.0,89.0,16.0,0.016,0.0005210175295360386,-0.0005723856738768518,0.01961897499859333,0.00422072084620595,-0.003916338551789522,-0.012027914635837078,-0.5827211141586304,-0.2538144290447235,0.002622532658278942,0.019827309995889664,-0.01273972075432539,3.3703197459544754e-06,0.0001932644663611427,3.943108558654785,60.0,0.0,7000.0,7000.0,7000.0,7000.0,32.766,32.766,0.291,0.401,2.86,2018.47705078125,809.9663696289062,34.82221984863281,,False,
1783642984.8807216,2026-07-09T17:23:04,15349,20260709_172258,,,,,,arming,,,,,,,,,False,-0.00029781030025333166,-0.004299473017454147,0.9982659220695496,-0.11343604326248169,-0.6136054396629333,0.24006129801273346,2.0,-6.0,103.0,29.0,0.029,0.0005210175295360386,-0.0005723856738768518,0.01961897499859333,0.00422072084620595,-0.003916338551789522,-0.012027914635837078,-0.5827211141586304,-0.2538144290447235,0.002622532658278942,0.019827309995889664,-0.01273972075432539,3.3703197459544754e-06,0.0001932644663611427,3.943108558654785,60.0,0.0,7000.0,7000.0,7000.0,7000.0,32.766,32.766,0.291,0.401,2.86,2018.47705078125,809.9663696289062,34.82221984863281,,False,
