pc_time_s,pc_time_iso,cf_time_ms,session_id,motif_id,motif_type,motif_phase,rep_index,motif_param_json,flight_phase,cmd_vx_m_s,cmd_vy_m_s,cmd_yaw_rate_deg_s,cmd_height_m,cmd_vx_raw_m_s,cmd_vy_raw_m_s,cmd_yaw_rate_raw_deg_s,cmd_height_raw_m,safety_override_active,acc_x_g,acc_y_g,acc_z_g,gyro_x_dps,gyro_y_dps,gyro_z_dps,flow_delta_x_px,flow_delta_y_px,flow_squal,zrange_mm,zrange_m,x_m,y_m,z_m,vx_m_s,vy_m_s,vz_m_s,roll_deg,pitch_deg,yaw_deg,kalman_state_z_m,kalman_state_pz,kalman_var_z,kalman_var_pz,battery_v,battery_level_pct,pm_state,motor_m1,motor_m2,motor_m3,motor_m4,range_front_m,range_back_m,range_left_m,range_right_m,range_up_m,baro_asl_m,baro_pressure_hpa,baro_temp_c,safety_flag,should_land,event
1783642382.6577456,2026-07-09T17:13:02,,20260709_171258,,,,,,ground_idle,,,,,,,,,False,,,,,,,,,,,,,,,,,,,,,,,,,,,,,,,,,,,,,,,,,False,
1783642382.6678863,2026-07-09T17:13:02,204785,20260709_171258,,,,,,ground_idle,,,,,,,,,False,-0.0056192828342318535,-0.01977149397134781,0.9998540282249451,-0.14101597666740417,-0.12022452056407928,-0.007200728636234999,,,,,,,,,,,,,,,,,,,,,,,,,,,,,,,,,,,False,
1783642382.677992,2026-07-09T17:13:02,204795,20260709_171258,,,,,,ground_idle,,,,,,,,,False,-0.003479568986222148,-0.018730709329247475,0.9994029998779297,0.33018556237220764,0.21597284078598022,-0.04045215994119644,0.0,0.0,88.0,27.0,0.027,,,,,,,,,,,,,,,,,,,,,,,,,,,,,,False,
1783642382.688108,2026-07-09T17:13:02,204805,20260709_171258,,,,,,ground_idle,,,,,,,,,False,-0.002460867865011096,-0.016978992149233818,0.9984703660011292,-0.11328403651714325,0.18201595544815063,0.16128313541412354,0.0,0.0,94.0,27.0,0.027,-0.010901068337261677,-0.023376446217298508,0.024806087836623192,-0.0035291037056595087,-0.0042603169567883015,-0.004270466510206461,-1.000253438949585,-0.209745854139328,2.2402865886688232,,,,,,,,,,,,,,,,,,,,,False,
1783642382.698235,2026-07-09T17:13:02,204815,20260709_171258,,,,,,ground_idle,,,,,,,,,False,-0.003885265439748764,-0.016294466331601143,0.9979938864707947,0.19657574594020844,0.055584002286195755,-0.050564106553792953,-1.0,-1.0,78.0,27.0,0.027,-0.010901068337261677,-0.023376446217298508,0.024806087836623192,-0.0035291037056595087,-0.0042603169567883015,-0.004270466510206461,-1.000253438949585,-0.209745854139328,2.2402865886688232,,,,,,,,,,,,,,,,,,,,,False,
1783642382.7083604,2026-07-09T17:13:02,204825,20260709_171258,,,,,,ground_idle,,,,,,,,,False,-0.0037370745558291674,-0.017042960971593857,0.9983203411102295,0.11916007101535797,0.09206509590148926,0.07187973707914352,-1.0,-2.0,74.0,27.0,0.027,-0.009866827167570591,-0.022595958784222603,0.025730153545737267,0.0015464192256331444,-0.0004387357912492007,0.0005268874811008573,-1.0234534740447998,-0.2493349015712738,2.239880323410034,,,,,,,,,,,,,,,,,,,,,False,
1783642382.7185078,2026-07-09T17:13:02,204835,20260709_171258,,,,,,ground_idle,,,,,,,,,False,-0.004694271832704544,-0.016508350148797035,0.9982207417488098,-0.23629988729953766,-0.05107003450393677,-0.08077771961688995,2.0,3.0,80.0,27.0,0.027,-0.009866827167570591,-0.022595958784222603,0.025730153545737267,0.0015464192256331444,-0.0004387357912492007,0.0005268874811008573,-1.0234534740447998,-0.2493349015712738,2.239880323410034,0.02573866955935955,0.0003204943204764277,3.315234152978519e-06,0.00019160508236382157,4.080351829528809,90.0,0.0,0.0,0.0,0.0,0.0,32.766,32.766,0.28300000000000003,0.393,0.027,,,,,False,
1783642382.7287152,2026-07-09T17:13:02,204845,20260709_171258,,,,,,ground_idle,,,,,,,,,False,-0.005449515767395496,-0.021460140123963356,1.0009766817092896,0.05737978219985962,-0.015525851398706436,-0.010445944964885712,0.0,0.0,91.0,27.0,0.027,-0.010868578217923641,-0.023324931040406227,0.025741925463080406,-0.0028823777101933956,-0.0033438107930123806,0.0002620092127472162,-1.0000990629196167,-0.21392206847667694,2.2417831420898438,0.02573866955935955,0.0003204943204764277,3.315234152978519e-06,0.00019160508236382157,4.080351829528809,90.0,0.0,0.0,0.0,0.0,0.0,32.766,32.766,0.28300000000000003,0.393,0.027,,,,,False,
1783642382.7390378,2026-07-09T17:13:02,204855,20260709_171258,,,,,,ground_idle,,,,,,,,,False,-0.0045553818345069885,-0.019197216257452965,1.000272274017334,-0.1524299532175064,-0.11767537146806717,0.15816551446914673,0.0,0.0,83.0,27.0,0.027,-0.010868578217923641,-0.023324931040406227,0.025741925463080406,-0.0028823777101933956,-0.0033438107930123806,0.0002620092127472162,-1.0000990629196167,-0.21392206847667694,2.2417831420898438,0.02573866955935955,0.0003204943204764277,3.315234152978519e-06,0.00019160508236382157,4.080351829528809,90.0,0.0,0.0,0.0,0.0,0.0,32.766,32.766,0.28300000000000003,0.393,0.027,,,,,False,
1783642382.749269,2026-07-09T17:13:02,204867,20260709_171258,,,,,,ground_idle,,,,,,,,,False,-0.004548656288534403,-0.02045293152332306,0.999328076839447,0.10450532287359238,-0.18476533889770508,0.04080616682767868,1.0,1.0,80.0,24.0,0.024,-0.010567924939095974,-0.022636577486991882,0.025013381615281105,-0.001554256770759821,-0.0004076925106346607,-0.0035044928081333637,-1.0250508785247803,-0.22559966146945953,2.2412290573120117,0.02573866955935955,0.0003204943204764277,3.315234152978519e-06,0.00019160508236382157,4.080351829528809,90.0,0.0,0.0,0.0,0.0,0.0,32.766,32.766,0.28300000000000003,0.393,0.027,,,,,False,
1783642382.7594576,2026-07-09T17:13:02,204875,20260709_171258,,,,,,ground_idle,,,,,,,,,False,-0.00466418731957674,-0.01897059753537178,0.998167872428894,0.05972374230623245,0.03187008574604988,-0.06342970579862595,1.0,1.0,80.0,24.0,0.024,-0.010567924939095974,-0.022636577486991882,0.025013381615281105,-0.001554256770759821,-0.0004076925106346607,-0.0035044928081333637,-1.0250508785247803,-0.22559966146945953,2.2412290573120117,0.02573866955935955,0.0003204943204764277,3.315234152978519e-06,0.00019160508236382157,4.080351829528809,90.0,0.0,0.0,0.0,0.0,0.0,32.766,32.766,0.28300000000000003,0.393,0.027,,,,,False,
1783642382.7697163,2026-07-09T17:13:02,204885,20260709_171258,,,,,,ground_idle,,,,,,,,,False,-0.003630703082308173,-0.019476046785712242,0.9996947050094604,0.18904559314250946,0.16445857286453247,0.08118613064289093,1.0,0.0,99.0,24.0,0.024,-0.010847639292478561,-0.023309167474508286,0.024943294003605843,-0.0027349062729626894,-0.0036483865696936846,-0.003595014801248908,-1.0045061111450195,-0.21752412617206573,2.24145245552063,0.024943294003605843,-0.00366739509627223,3.2519853903067997e-06,0.00018975728016812354,4.080351829528809,90.0,0.0,0.0,0.0,0.0,0.0,32.766,32.766,0.28300000000000003,0.393,0.027,2017.7935791015625,810.0270385742188,32.323673248291016,,False,
1783642382.7799115,2026-07-09T17:13:02,204898,20260709_171258,,,,,,ground_idle,,,,,,,,,False,-0.004731688182801008,-0.01824260875582695,0.9983852505683899,0.0168556347489357,-0.1841682344675064,-0.11545229703187943,0.0,0.0,95.0,24.0,0.024,-0.010902909561991692,-0.023384975269436836,0.024869311600923538,-0.0028235989157110453,-0.003947223536670208,-0.0037526320666074753,-1.0045061111450195,-0.21752412617206573,2.24145245552063,0.024943294003605843,-0.00366739509627223,3.2519853903067997e-06,0.00018975728016812354,4.080351829528809,90.0,0.0,0.0,0.0,0.0,0.0,32.766,32.766,0.28300000000000003,0.393,0.027,2017.7935791015625,810.0270385742188,32.323673248291016,,False,
1783642382.7900593,2026-07-09T17:13:02,204907,20260709_171258,,,,,,ground_idle,,,,,,,,,False,-0.005217932164669037,-0.01875414326786995,0.9986939430236816,0.04258691892027855,-0.17147795855998993,0.18651507794857025,-1.0,-1.0,69.0,24.0,0.024,-0.010902909561991692,-0.023384975269436836,0.024869311600923538,-0.0028235989157110453,-0.003947223536670208,-0.0037526320666074753,-1.0023781061172485,-0.21660254895687103,2.2417173385620117,0.024943294003605843,-0.00366739509627223,3.2519853903067997e-06,0.00018975728016812354,4.080351829528809,90.0,0.0,0.0,0.0,0.0,0.0,32.766,32.766,0.28300000000000003,0.393,0.027,2017.7935791015625,810.0270385742188,32.323673248291016,,False,
1783642382.800204,2026-07-09T17:13:02,204918,20260709_171258,,,,,,ground_idle,,,,,,,,,False,-0.006078902166336775,-0.01837838441133499,0.9985194206237793,-0.20277363061904907,-0.24151283502578735,-0.07324536144733429,0.0,0.0,78.0,24.0,0.024,-0.010557886213064194,-0.023026317358016968,0.024429207667708397,-0.0013701242860406637,-0.0022338961716741323,-0.00580622348934412,-1.0023781061172485,-0.21660254895687103,2.2417173385620117,0.024943294003605843,-0.00366739509627223,3.2519853903067997e-06,0.00018975728016812354,4.080351829528809,90.0,0.0,0.0,0.0,0.0,0.0,32.766,32.766,0.28300000000000003,0.393,0.027,2017.7935791015625,810.0270385742188,32.323673248291016,,False,
1783642382.810351,2026-07-09T17:13:02,204927,20260709_171258,,,,,,ground_idle,,,,,,,,,False,-0.005361553747206926,-0.018984733149409294,0.9976805448532104,0.13377998769283295,-0.3778505325317383,0.2942532002925873,1.0,1.0,79.0,24.0,0.024,-0.010557886213064194,-0.023026317358016968,0.024429207667708397,-0.0013701242860406637,-0.0022338961716741323,-0.00580622348934412,-1.0157630443572998,-0.22984611988067627,2.239051103591919,0.024943294003605843,-0.00366739509627223,3.2519853903067997e-06,0.00018975728016812354,4.080351829528809,90.0,0.0,0.0,0.0,0.0,0.0,32.766,32.766,0.28300000000000003,0.393,0.027,2017.7935791015625,810.0270385742188,32.323673248291016,,False,
1783642382.8205004,2026-07-09T17:13:02,204937,20260709_171258,,,,,,ground_idle,,,,,,,,,False,-0.0048549966886639595,-0.017102155834436417,0.9991635084152222,0.07239726185798645,-0.29312601685523987,-0.15466798841953278,0.0,0.0,91.0,24.0,0.024,-0.010557886213064194,-0.023026317358016968,0.024429207667708397,-0.0013701242860406637,-0.0022338961716741323,-0.00580622348934412,-1.0157630443572998,-0.22984611988067627,2.239051103591919,0.024370364844799042,-0.005994624458253384,3.2167649806069676e-06,0.0001893646694952622,4.080351829528809,90.0,0.0,0.0,0.0,0.0,0.0,32.766,32.766,0.28,32.766,0.025,2017.7935791015625,810.0270385742188,32.323673248291016,,False,
1783642382.830667,2026-07-09T17:13:02,204947,20260709_171258,,,,,,ground_idle,,,,,,,,,False,-0.005264680366963148,-0.015250430442392826,0.9988857507705688,-0.10265697538852692,0.2755388915538788,0.029382694512605667,-1.0,-1.0,90.0,24.0,0.024,-0.010924765840172768,-0.023421503603458405,0.024310307577252388,-0.003091435180976987,-0.0038857157342135906,-0.006091983988881111,-1.0060921907424927,-0.21227136254310608,2.2396035194396973,0.024370364844799042,-0.005994624458253384,3.2167649806069676e-06,0.0001893646694952622,4.080351829528809,90.0,0.0,0.0,0.0,0.0,0.0,32.766,32.766,0.28,32.766,0.025,2017.7935791015625,810.0270385742188,32.323673248291016,,False,
1783642382.8408253,2026-07-09T17:13:02,204957,20260709_171258,,,,,,ground_idle,,,,,,,,,False,-0.004179790150374174,-0.017264313995838165,0.9991201162338257,0.004957391414791346,0.024438852444291115,-0.009234646335244179,-1.0,0.0,82.0,25.0,0.025,-0.010924765840172768,-0.023421503603458405,0.024310307577252388,-0.003091435180976987,-0.0038857157342135906,-0.006091983988881111,-1.0060921907424927,-0.21227136254310608,2.2396035194396973,0.024370364844799042,-0.005994624458253384,3.2167649806069676e-06,0.0001893646694952622,4.080351829528809,90.0,0.0,0.0,0.0,0.0,0.0,32.766,32.766,0.28,32.766,0.025,2017.7935791015625,810.0270385742188,32.323673248291016,,False,
1783642382.85097,2026-07-09T17:13:02,204967,20260709_171258,,,,,,ground_idle,,,,,,,,,False,-0.003758163657039404,-0.018878307193517685,1.0004068613052368,-0.026829097419977188,0.31445738673210144,0.0012163416249677539,1.0,0.0,88.0,25.0,0.025,-0.01055818609893322,-0.022659575566649437,0.02449488826096058,-0.0015323362313210964,4.954087853548117e-05,-0.004794078413397074,-1.0319008827209473,-0.22870804369449615,2.2410008907318115,0.024370364844799042,-0.005994624458253384,3.2167649806069676e-06,0.0001893646694952622,4.080351829528809,90.0,0.0,0.0,0.0,0.0,0.0,32.766,32.766,0.28,32.766,0.025,2017.7935791015625,810.0270385742188,32.323673248291016,,False,
1783642382.8611114,2026-07-09T17:13:02,204978,20260709_171258,,,,,,ground_idle,,,,,,,,,False,-0.0030549445655196905,-0.018030710518360138,0.9989007115364075,0.32482054829597473,-0.31695765256881714,-0.1472751945257187,0.0,1.0,94.0,25.0,0.025,-0.01083411555737257,-0.023014726117253304,0.02439938858151436,-0.0025848043151199818,-0.0015313033945858479,-0.004786861594766378,-1.0319008827209473,-0.22870804369449615,2.2410008907318115,0.024370364844799042,-0.005994624458253384,3.2167649806069676e-06,0.0001893646694952622,4.080351829528809,90.0,0.0,0.0,0.0,0.0,0.0,32.766,32.766,0.28,32.766,0.025,2017.7935791015625,810.0270385742188,32.323673248291016,,False,
1783642382.8712547,2026-07-09T17:13:02,204987,20260709_171258,,,,,,ground_idle,,,,,,,,,False,-0.0036711539141833782,-0.017841892316937447,0.998416006565094,0.3358251750469208,0.1390247941017151,-0.07082730531692505,0.0,-1.0,85.0,25.0,0.025,-0.01083411555737257,-0.023014726117253304,0.02439938858151436,-0.0025848043151199818,-0.0015313033945858479,-0.004786861594766378,-1.0188485383987427,-0.22481657564640045,2.2418317794799805,0.02440006099641323,-0.004811116494238377,3.357049081387231e-06,0.00019634926866274327,4.080351829528809,90.0,0.0,0.0,0.0,0.0,0.0,32.766,32.766,0.28,32.766,0.025,2017.7442626953125,810.0310668945312,32.32954788208008,,False,
1783642382.8813949,2026-07-09T17:13:02,204998,20260709_171258,,,,,,ground_idle,,,,,,,,,False,-0.005665205419063568,-0.01849924400448799,1.0001304149627686,-0.09685372561216354,-0.2467619627714157,-0.15756173431873322,1.0,1.0,89.0,25.0,0.025,-0.010796784423291683,-0.023315735161304474,0.024302516132593155,-0.0022078510373830795,-0.0028117510955780745,-0.00492953322827816,-1.0188485383987427,-0.22481657564640045,2.2418317794799805,0.02440006099641323,-0.004811116494238377,3.357049081387231e-06,0.00019634926866274327,4.080351829528809,90.0,0.0,0.0,0.0,0.0,0.0,32.766,32.766,0.28,32.766,0.025,2017.7442626953125,810.0310668945312,32.32954788208008,,False,
1783642382.8915408,2026-07-09T17:13:02,205007,20260709_171258,,,,,,ground_idle,,,,,,,,,False,-0.005040691699832678,-0.01946074701845646,0.9998963475227356,0.09164451062679291,-0.14073194563388824,0.23053599894046783,1.0,0.0,72.0,25.0,0.025,-0.010796784423291683,-0.023315735161304474,0.024302516132593155,-0.0022078510373830795,-0.0028117510955780745,-0.00492953322827816,-1.006551742553711,-0.2256612777709961,2.24122953414917,0.02440006099641323,-0.004811116494238377,3.357049081387231e-06,0.00019634926866274327,4.080351829528809,90.0,0.0,0.0,0.0,0.0,0.0,32.766,32.766,0.28,32.766,0.025,2017.7442626953125,810.0310668945312,32.32954788208008,,False,
1783642382.901869,2026-07-09T17:13:02,205018,20260709_171258,,,,,,ground_idle,,,,,,,,,False,-0.0039043950382620096,-0.01854914426803589,0.9974649548530579,0.14343737065792084,-0.05193877965211868,0.1293763816356659,-2.0,-1.0,79.0,26.0,0.026,-0.010500817559659481,-0.022964412346482277,0.02498719096183777,-0.0008362953085452318,-0.001157919061370194,-0.00110700074583292,-1.006551742553711,-0.2256612777709961,2.24122953414917,0.02440006099641323,-0.004811116494238377,3.357049081387231e-06,0.00019634926866274327,4.080351829528809,90.0,0.0,0.0,0.0,0.0,0.0,32.766,32.766,0.28,32.766,0.025,2017.7442626953125,810.0310668945312,32.32954788208008,,False,
1783642382.9120226,2026-07-09T17:13:02,205027,20260709_171258,,,,,,ground_idle,,,,,,,,,False,-0.004633455071598291,-0.020578933879733086,0.9988520741462708,0.08807173371315002,-0.4745052754878998,0.0551794171333313,0.0,1.0,80.0,26.0,0.026,-0.010500817559659481,-0.022964412346482277,0.02498719096183777,-0.0008362953085452318,-0.001157919061370194,-0.00110700074583292,-1.0203579664230347,-0.23513731360435486,2.2401983737945557,0.02440006099641323,-0.004811116494238377,3.357049081387231e-06,0.00019634926866274327,4.080351829528809,90.0,0.0,0.0,0.0,0.0,0.0,32.766,32.766,0.28,32.766,0.025,2017.7442626953125,810.0310668945312,32.32954788208008,,False,
1783642382.922168,2026-07-09T17:13:02,205038,20260709_171258,,,,,,ground_idle,,,,,,,,,False,-0.00273481965996325,-0.0202660970389843,0.9990186095237732,-0.058642368763685226,-0.14347146451473236,0.11096172779798508,0.0,0.0,91.0,26.0,0.026,-0.010818833485245705,-0.02299696020781994,0.024961920455098152,-0.0021617156453430653,-0.0016073666047304869,-0.0013935943134129047,-1.0203579664230347,-0.23513731360435486,2.2401983737945557,0.024975303560495377,-0.0013132434105500579,3.291204166089301e-06,0.00019180879462510347,4.080351829528809,90.0,0.0,0.0,0.0,0.0,0.0,32.766,32.766,0.28200000000000003,0.391,0.027,2017.7442626953125,810.0310668945312,32.32954788208008,,False,
1783642382.932338,2026-07-09T17:13:02,205047,20260709_171258,,,,,,ground_idle,,,,,,,,,False,-0.004460976924747229,-0.018473606556653976,0.9995534420013428,0.0737203061580658,0.11737416684627533,0.03870690241456032,-1.0,0.0,85.0,26.0,0.026,-0.010818833485245705,-0.02299696020781994,0.024961920455098152,-0.0021617156453430653,-0.0016073666047304869,-0.0013935943134129047,-1.0185569524765015,-0.22002442181110382,2.2409462928771973,0.024975303560495377,-0.0013132434105500579,3.291204166089301e-06,0.00019180879462510347,4.080351829528809,90.0,0.0,0.0,0.0,0.0,0.0,32.766,32.766,0.28200000000000003,0.391,0.027,2017.7442626953125,810.0310668945312,32.32954788208008,,False,
1783642382.9424932,2026-07-09T17:13:02,205058,20260709_171258,,,,,,ground_idle,,,,,,,,,False,-0.0025078149046748877,-0.018428048118948936,0.9975407719612122,-0.0929216518998146,0.11073184013366699,0.1681443452835083,1.0,0.0,79.0,25.0,0.025,-0.010800370015203953,-0.02297990582883358,0.02495546080172062,-0.0018459238344803452,-0.00163348822388798,-0.0013745063915848732,-1.0185569524765015,-0.22002442181110382,2.2409462928771973,0.024975303560495377,-0.0013132434105500579,3.291204166089301e-06,0.00019180879462510347,4.080351829528809,90.0,0.0,0.0,0.0,0.0,0.0,32.766,32.766,0.28200000000000003,0.391,0.027,2017.7442626953125,810.0310668945312,32.32954788208008,,False,
1783642382.9527037,2026-07-09T17:13:02,205067,20260709_171258,,,,,,ground_idle,,,,,,,,,False,-0.003909070044755936,-0.020356569439172745,0.9978477954864502,-0.15831203758716583,-0.16347667574882507,-0.045705635100603104,0.0,0.0,82.0,25.0,0.025,-0.010800370015203953,-0.02297990582883358,0.02495546080172062,-0.0018459238344803452,-0.00163348822388798,-0.0013745063915848732,-1.0198272466659546,-0.22226029634475708,2.2400453090667725,0.024975303560495377,-0.0013132434105500579,3.291204166089301e-06,0.00019180879462510347,4.080351829528809,90.0,0.0,0.0,0.0,0.0,0.0,32.766,32.766,0.28200000000000003,0.391,0.027,2017.7442626953125,810.0310668945312,32.32954788208008,,False,
1783642382.9628816,2026-07-09T17:13:02,205078,20260709_171258,,,,,,ground_idle,,,,,,,,,False,-0.0035941042006015778,-0.02047567442059517,0.9998424649238586,-0.02519698441028595,-0.5577203631401062,0.08225306123495102,0.0,0.0,90.0,25.0,0.025,-0.010835370980203152,-0.02301575429737568,0.024923833087086678,-0.001724491361528635,-0.0020338043104857206,-0.0017447242280468345,-1.0198272466659546,-0.22226029634475708,2.2400453090667725,0.024975303560495377,-0.0013132434105500579,3.291204166089301e-06,0.00019180879462510347,4.080351829528809,90.0,0.0,0.0,0.0,0.0,0.0,32.766,32.766,0.28200000000000003,0.391,0.027,2017.7442626953125,810.0310668945312,32.32954788208008,,False,
1783642382.9730308,2026-07-09T17:13:02,205087,20260709_171258,,,,,,ground_idle,,,,,,,,,False,-0.005041022319346666,-0.017275214195251465,1.000690221786499,-0.12455230206251144,-0.23743171989917755,0.005095773376524448,0.0,0.0,88.0,25.0,0.025,-0.010835370980203152,-0.02301575429737568,0.024923833087086678,-0.001724491361528635,-0.0020338043104857206,-0.0017447242280468345,-1.0212899446487427,-0.22188344597816467,2.242077350616455,0.024923833087086678,-0.0017864378169178963,3.405223878871766e-06,0.00019698891264852136,4.080351829528809,90.0,0.0,0.0,0.0,0.0,0.0,32.766,32.766,0.28200000000000003,0.391,0.027,2017.75537109375,810.0303955078125,32.33262252807617,,False,
1783642382.983177,2026-07-09T17:13:02,205101,20260709_171258,,,,,,ground_idle,,,,,,,,,False,-0.004426409024745226,-0.016531843692064285,1.0007034540176392,0.19288896024227142,0.24282410740852356,-0.05660770833492279,0.0,0.0,94.0,25.0,0.025,-0.0108702527359128,-0.023058734834194183,0.024890383705496788,-0.0018156367586925626,-0.0021168545354157686,-0.0015889686765149236,-1.0198445320129395,-0.21595652401447296,2.2415902614593506,0.024923833087086678,-0.0017864378169178963,3.405223878871766e-06,0.00019698891264852136,4.080351829528809,90.0,0.0,0.0,0.0,0.0,0.0,32.766,32.766,0.28200000000000003,0.391,0.027,2017.75537109375,810.0303955078125,32.33262252807617,,False,
1783642382.9933286,2026-07-09T17:13:02,205107,20260709_171258,,,,,,ground_idle,,,,,,,,,False,-0.0037659606896340847,-0.01661842130124569,0.998984158039093,0.05307558923959732,-0.032985687255859375,0.08427148312330246,2.0,0.0,79.0,25.0,0.025,-0.0108702527359128,-0.023058734834194183,0.024890383705496788,-0.0018156367586925626,-0.0021168545354157686,-0.0015889686765149236,-1.0198445320129395,-0.21595652401447296,2.2415902614593506,0.024923833087086678,-0.0017864378169178963,3.405223878871766e-06,0.00019698891264852136,4.080351829528809,90.0,0.0,0.0,0.0,0.0,0.0,32.766,32.766,0.28200000000000003,0.391,0.027,2017.75537109375,810.0303955078125,32.33262252807617,,False,
1783642383.0034738,2026-07-09T17:13:03,205121,20260709_171258,,,,,,ground_idle,,,,,,,,,False,-0.0008547600009478629,-0.016982318833470345,0.9988473057746887,-0.14455565810203552,-0.24788512289524078,-0.05078383535146713,-2.0,-1.0,75.0,26.0,0.026,-0.010515117086470127,-0.02301226370036602,0.02536812424659729,-1.3034993571636733e-05,-0.0013805129565298557,0.0008636341081000865,-1.02098548412323,-0.23031191527843475,2.2422585487365723,0.024923833087086678,-0.0017864378169178963,3.405223878871766e-06,0.00019698891264852136,4.080351829528809,90.0,0.0,0.0,0.0,0.0,0.0,32.766,32.766,0.28200000000000003,0.391,0.027,2017.75537109375,810.0303955078125,32.33262252807617,,False,
1783642383.0137234,2026-07-09T17:13:03,205132,20260709_171258,,,,,,ground_idle,,,,,,,,,False,-0.0016243699938058853,-0.020339282229542732,0.9986565709114075,-0.042094886302948,-0.35374030470848083,-0.19192945957183838,0.0,0.0,87.0,26.0,0.026,-0.010515117086470127,-0.02301226370036602,0.02536812424659729,-1.3034993571636733e-05,-0.0013805129565298557,0.0008636341081000865,-1.02098548412323,-0.23031191527843475,2.2422585487365723,0.02537686564028263,0.0007382824551314116,3.3140452160296263e-06,0.00019166104902978987,4.080351829528809,90.0,0.0,0.0,0.0,0.0,0.0,32.766,32.766,0.28200000000000003,0.391,0.027,2017.75537109375,810.0303955078125,32.33262252807617,,False,
1783642383.0238874,2026-07-09T17:13:03,205141,20260709_171258,,,,,,ground_idle,,,,,,,,,False,-0.004339501727372408,-0.019068147987127304,0.9995211362838745,0.023026317358016968,0.12692244350910187,0.12932629883289337,1.0,1.0,93.0,26.0,0.026,-0.010841413401067257,-0.023366982117295265,0.02538396418094635,-0.0010606584837660193,-0.00313739781267941,0.000626254070084542,-1.0112966299057007,-0.21388964354991913,2.241908550262451,0.02537686564028263,0.0007382824551314116,3.3140452160296263e-06,0.00019166104902978987,4.080351829528809,90.0,0.0,0.0,0.0,0.0,0.0,32.766,32.766,32.766,0.386,0.027,2017.75537109375,810.0303955078125,32.33262252807617,,False,
1783642383.0340314,2026-07-09T17:13:03,205147,20260709_171258,,,,,,ground_idle,,,,,,,,,False,-0.0056443833746016026,-0.01867210492491722,1.0017298460006714,-0.13078315556049347,-0.3349635899066925,-0.0716061145067215,-1.0,0.0,88.0,26.0,0.026,-0.010841413401067257,-0.023366982117295265,0.02538396418094635,-0.0010606584837660193,-0.00313739781267941,0.000626254070084542,-1.0112966299057007,-0.21388964354991913,2.241908550262451,0.02537686564028263,0.0007382824551314116,3.3140452160296263e-06,0.00019166104902978987,4.080351829528809,90.0,0.0,0.0,0.0,0.0,0.0,32.766,32.766,32.766,0.386,0.027,2017.75537109375,810.0303955078125,32.33262252807617,,False,
1783642383.0441742,2026-07-09T17:13:03,205161,20260709_171258,,,,,,ground_idle,,,,,,,,,False,-0.005955843720585108,-0.01710047572851181,0.9993420243263245,-0.19286881387233734,-0.5734471678733826,0.15905718505382538,0.0,0.0,100.0,27.0,0.027,-0.010868597775697708,-0.02302301488816738,0.026068206876516342,-0.001421330845914781,-0.0015041489386931062,0.004128284752368927,-1.0252639055252075,-0.20844337344169617,2.2434332370758057,0.02537686564028263,0.0007382824551314116,3.3140452160296263e-06,0.00019166104902978987,4.080351829528809,90.0,0.0,0.0,0.0,0.0,0.0,32.766,32.766,32.766,0.386,0.027,2017.75537109375,810.0303955078125,32.33262252807617,,False,
1783642383.0543227,2026-07-09T17:13:03,205167,20260709_171258,,,,,,ground_idle,,,,,,,,,False,-0.003391903592273593,-0.017733339220285416,1.0003830194473267,0.10981395095586777,0.07498016208410263,-0.18274937570095062,1.0,0.0,86.0,27.0,0.027,-0.010868597775697708,-0.02302301488816738,0.026068206876516342,-0.001421330845914781,-0.0015041489386931062,0.004128284752368927,-1.0252639055252075,-0.20844337344169617,2.2434332370758057,0.02537686564028263,0.0007382824551314116,3.3140452160296263e-06,0.00019166104902978987,4.080351829528809,90.0,0.0,0.0,0.0,0.0,0.0,32.766,32.766,32.766,0.386,0.027,2017.75537109375,810.0303955078125,32.33262252807617,,False,
1783642383.0644855,2026-07-09T17:13:03,205182,20260709_171258,,,,,,ground_idle,,,,,,,,,False,-0.0030103528406471014,-0.017891423776745796,0.9987242221832275,0.003951170481741428,-0.052717965096235275,-0.09729087352752686,0.0,0.0,94.0,27.0,0.027,-0.010861121118068695,-0.023378055542707443,0.026150954887270927,-0.0013325498439371586,-0.002947672503069043,0.004120803438127041,-1.0152379274368286,-0.20586177706718445,2.243370771408081,0.026150954887270927,0.004063676577061415,3.414265393075766e-06,0.00019672175403684378,4.080351829528809,90.0,0.0,0.0,0.0,0.0,0.0,32.766,32.766,32.766,0.386,0.027,2017.75537109375,810.0303955078125,32.33262252807617,,False,
1783642383.074656,2026-07-09T17:13:03,205187,20260709_171258,,,,,,ground_idle,,,,,,,,,False,-0.005010124761611223,-0.017365803942084312,0.9989578127861023,-0.12666629254817963,-0.22960935533046722,0.13134083151817322,0.0,0.0,80.0,27.0,0.027,-0.010861121118068695,-0.023378055542707443,0.026150954887270927,-0.0013325498439371586,-0.002947672503069043,0.004120803438127041,-1.0152379274368286,-0.20586177706718445,2.243370771408081,0.026150954887270927,0.004063676577061415,3.414265393075766e-06,0.00019672175403684378,4.0750732421875,90.0,0.0,0.0,0.0,0.0,0.0,32.766,32.766,32.766,0.386,0.027,2017.771728515625,810.02880859375,32.33893585205078,,False,
1783642383.0848129,2026-07-09T17:13:03,205201,20260709_171258,,,,,,ground_idle,,,,,,,,,False,-0.006116176955401897,-0.01872449740767479,0.998093843460083,0.3642981946468353,0.5030519366264343,0.08647243678569794,-1.0,0.0,97.0,27.0,0.027,-0.010873280465602875,-0.023038093000650406,0.026231911033391953,-0.0014055827632546425,-0.0011803006054833531,0.0038943898398429155,-1.0270352363586426,-0.2066405564546585,2.242680788040161,0.026150954887270927,0.004063676577061415,3.414265393075766e-06,0.00019672175403684378,4.0750732421875,90.0,0.0,0.0,0.0,0.0,0.0,32.766,32.766,32.766,0.386,0.027,2017.771728515625,810.02880859375,32.33893585205078,,False,
1783642383.0949574,2026-07-09T17:13:03,205207,20260709_171258,,,,,,ground_idle,,,,,,,,,False,-0.006694659125059843,-0.019625777378678322,0.9975516200065613,0.10641074925661087,0.12196912616491318,-0.1975218504667282,0.0,-1.0,73.0,27.0,0.027,-0.010873280465602875,-0.023038093000650406,0.026231911033391953,-0.0014055827632546425,-0.0011803006054833531,0.0038943898398429155,-1.0270352363586426,-0.2066405564546585,2.242680788040161,0.026150954887270927,0.004063676577061415,3.414265393075766e-06,0.00019672175403684378,4.0750732421875,90.0,0.0,0.0,0.0,0.0,0.0,32.766,32.766,32.766,0.386,0.027,2017.771728515625,810.02880859375,32.33893585205078,,False,
1783642383.105102,2026-07-09T17:13:03,205221,20260709_171258,,,,,,ground_idle,,,,,,,,,False,-0.004655592143535614,-0.019573181867599487,1.0000706911087036,0.29715844988822937,-0.2011949121952057,-0.14996249973773956,0.0,0.0,79.0,24.0,0.024,-0.010535632260143757,-0.02305382676422596,0.025281963869929314,-0.00028905560611747205,-0.0014659877633675933,-0.001509356894530356,-1.0219184160232544,-0.21838191151618958,2.242396116256714,0.026150954887270927,0.004063676577061415,3.414265393075766e-06,0.00019672175403684378,4.0750732421875,90.0,0.0,0.0,0.0,0.0,0.0,32.766,32.766,32.766,0.386,0.027,2017.771728515625,810.02880859375,32.33893585205078,,False,
1783642383.1152487,2026-07-09T17:13:03,205232,20260709_171258,,,,,,ground_idle,,,,,,,,,False,-0.004714323673397303,-0.02052132599055767,1.0004442930221558,0.17243972420692444,-0.14601098001003265,-0.24360619485378265,0.0,0.0,86.0,24.0,0.024,-0.010535632260143757,-0.02305382676422596,0.025281963869929314,-0.00028905560611747205,-0.0014659877633675933,-0.001509356894530356,-1.0219184160232544,-0.21838191151618958,2.242396116256714,0.025267163291573524,-0.001492030336521566,3.315948788440437e-06,0.00019150300067849457,4.0750732421875,90.0,0.0,0.0,0.0,0.0,0.0,32.766,32.766,32.766,0.386,0.027,2017.771728515625,810.02880859375,32.33893585205078,,False,
1783642383.1253974,2026-07-09T17:13:03,205241,20260709_171258,,,,,,ground_idle,,,,,,,,,False,-0.004094291478395462,-0.018827635794878006,0.999836802482605,-0.36020714044570923,-0.270333468914032,0.14981681108474731,0.0,1.0,98.0,24.0,0.024,-0.010896196588873863,-0.023071330040693283,0.02525256760418415,-0.002006368013098836,-0.0017884912667796016,-0.0014605401083827019,-1.0213309526443481,-0.20579518377780914,2.2409605979919434,0.025267163291573524,-0.001492030336521566,3.315948788440437e-06,0.00019150300067849457,4.080351829528809,90.0,0.0,0.0,0.0,0.0,0.0,32.766,32.766,0.28300000000000003,0.387,0.027,2017.771728515625,810.02880859375,32.33893585205078,,False,
1783642383.1355443,2026-07-09T17:13:03,205247,20260709_171258,,,,,,ground_idle,,,,,,,,,False,-0.0029759411700069904,-0.016755972057580948,1.0022276639938354,-0.025643857195973396,-0.01767653226852417,0.14749285578727722,0.0,-1.0,88.0,24.0,0.024,-0.010896196588873863,-0.023071330040693283,0.02525256760418415,-0.002006368013098836,-0.0017884912667796016,-0.0014605401083827019,-1.0213309526443481,-0.20579518377780914,2.2409605979919434,0.025267163291573524,-0.001492030336521566,3.315948788440437e-06,0.00019150300067849457,4.080351829528809,90.0,0.0,0.0,0.0,0.0,0.0,32.766,32.766,0.28300000000000003,0.387,0.027,2017.771728515625,810.02880859375,32.33893585205078,,False,
1783642383.1459002,2026-07-09T17:13:03,205261,20260709_171258,,,,,,ground_idle,,,,,,,,,False,-0.006367003079503775,-0.018383661285042763,1.000573754310608,-0.38163843750953674,-0.28294938802719116,0.1599447876214981,0.0,1.0,93.0,24.0,0.024,-0.01088209543377161,-0.02305263839662075,0.024709686636924744,-0.0019312722142785788,-0.0015132137341424823,-0.003908061888068914,-1.0263994932174683,-0.2042907327413559,2.2411580085754395,0.025267163291573524,-0.001492030336521566,3.315948788440437e-06,0.00019150300067849457,4.080351829528809,90.0,0.0,0.0,0.0,0.0,0.0,32.766,32.766,0.28300000000000003,0.387,0.027,2017.771728515625,810.02880859375,32.33893585205078,,False,
1783642383.156051,2026-07-09T17:13:03,205267,20260709_171258,,,,,,ground_idle,,,,,,,,,False,-0.00499727251008153,-0.01898765377700329,0.9990374445915222,0.2841686010360718,-0.16555237770080566,-0.14003399014472961,1.0,0.0,83.0,24.0,0.024,-0.01088209543377161,-0.02305263839662075,0.024709686636924744,-0.0019312722142785788,-0.0015132137341424823,-0.003908061888068914,-1.0263994932174683,-0.2042907327413559,2.2411580085754395,0.025267163291573524,-0.001492030336521566,3.315948788440437e-06,0.00019150300067849457,4.080351829528809,90.0,0.0,0.0,0.0,0.0,0.0,32.766,32.766,0.28300000000000003,0.387,0.027,2017.771728515625,810.02880859375,32.33893585205078,,False,
1783642383.1661994,2026-07-09T17:13:03,205282,20260709_171258,,,,,,ground_idle,,,,,,,,,False,-0.005945309065282345,-0.018811549991369247,0.9979671835899353,0.196054145693779,-0.32962262630462646,-0.07429560273885727,0.0,0.0,98.0,24.0,0.024,-0.010884078219532967,-0.023411819711327553,0.02463109791278839,-0.002203128533437848,-0.003103355411440134,-0.004011363722383976,-1.0159904956817627,-0.2011609524488449,2.241880416870117,0.02463109791278839,-0.004072327166795731,3.252172746215365e-06,0.000189659942407161,4.080351829528809,90.0,0.0,0.0,0.0,0.0,0.0,32.766,32.766,0.28300000000000003,0.387,0.027,2017.771728515625,810.02880859375,32.33893585205078,,False,
1783642383.1763587,2026-07-09T17:13:03,205287,20260709_171258,,,,,,ground_idle,,,,,,,,,False,-0.0041156127117574215,-0.01575910672545433,0.9970154762268066,-0.047376349568367004,-0.1268063485622406,-0.3549076318740845,0.0,0.0,88.0,24.0,0.024,-0.010884078219532967,-0.023411819711327553,0.02463109791278839,-0.002203128533437848,-0.003103355411440134,-0.004011363722383976,-1.0159904956817627,-0.2011609524488449,2.241880416870117,0.02463109791278839,-0.004072327166795731,3.252172746215365e-06,0.000189659942407161,4.080351829528809,90.0,0.0,0.0,0.0,0.0,0.0,32.766,32.766,0.28300000000000003,0.387,0.027,2017.7498779296875,810.03076171875,32.342830657958984,,False,
1783642383.1865242,2026-07-09T17:13:03,205301,20260709_171258,,,,,,ground_idle,,,,,,,,,False,-0.002731624059379101,-0.016567058861255646,0.9978131651878357,0.2298169583082199,-0.23375049233436584,-0.08723117411136627,0.0,0.0,95.0,24.0,0.024,-0.010930672287940979,-0.02347288653254509,0.024546660482883453,-0.002373773604631424,-0.002912485972046852,-0.004462017212063074,-1.0145004987716675,-0.19676895439624786,2.2403664588928223,0.02463109791278839,-0.004072327166795731,3.252172746215365e-06,0.000189659942407161,4.080351829528809,90.0,0.0,0.0,0.0,0.0,0.0,32.766,32.766,0.28300000000000003,0.387,0.027,2017.7498779296875,810.03076171875,32.342830657958984,,False,
1783642383.196755,2026-07-09T17:13:03,205315,20260709_171258,,,,,,ground_idle,,,,,,,,,False,-0.0035640900023281574,-0.01694442331790924,1.000413417816162,-0.20313149690628052,-0.41858595609664917,0.10332228988409042,-1.0,-1.0,80.0,24.0,0.024,-0.010930672287940979,-0.02347288653254509,0.024546660482883453,-0.002373773604631424,-0.002912485972046852,-0.004462017212063074,-1.0145004987716675,-0.19676895439624786,2.2403664588928223,0.02463109791278839,-0.004072327166795731,3.252172746215365e-06,0.000189659942407161,4.080351829528809,90.0,0.0,0.0,0.0,0.0,0.0,32.766,32.766,0.28300000000000003,0.387,0.027,2017.7498779296875,810.03076171875,32.342830657958984,,False,
1783642383.2069,2026-07-09T17:13:03,205325,20260709_171258,,,,,,ground_idle,,,,,,,,,False,-0.0036179949529469013,-0.01742733083665371,0.9998563528060913,0.02831677533686161,-0.10934684425592422,-0.03350960835814476,0.0,0.0,73.0,27.0,0.027,-0.010561567731201649,-0.023063715547323227,0.025548243895173073,-0.000578257895540446,-0.0007105861441232264,0.0006203502416610718,-1.0251792669296265,-0.21194934844970703,2.238332509994507,0.02463109791278839,-0.004072327166795731,3.252172746215365e-06,0.000189659942407161,4.080351829528809,90.0,0.0,0.0,0.0,0.0,0.0,32.766,32.766,0.28300000000000003,0.387,0.027,2017.7498779296875,810.03076171875,32.342830657958984,,False,
1783642383.2170455,2026-07-09T17:13:03,205334,20260709_171258,,,,,,ground_idle,,,,,,,,,False,-0.0036179949529469013,-0.01742733083665371,0.9998563528060913,0.02831677533686161,-0.10934684425592422,-0.03350960835814476,0.0,-1.0,88.0,27.0,0.027,-0.010561567731201649,-0.023063715547323227,0.025548243895173073,-0.000578257895540446,-0.0007105861441232264,0.0006203502416610718,-1.0251792669296265,-0.21194934844970703,2.238332509994507,0.025556035339832306,0.0006809196784161031,3.216579898435157e-06,0.00018929174984805286,4.080351829528809,90.0,0.0,0.0,0.0,0.0,0.0,32.766,0.302,0.28,0.384,0.028,2017.7498779296875,810.03076171875,32.342830657958984,,False,
1783642383.2273037,2026-07-09T17:13:03,205345,20260709_171258,,,,,,ground_idle,,,,,,,,,False,-0.006630648858845234,-0.016739336773753166,0.998977780342102,-0.14150819182395935,-0.1378890424966812,0.012725681066513062,0.0,2.0,95.0,27.0,0.027,-0.01090569794178009,-0.02307112328708172,0.025563083589076996,-0.002168352948501706,-0.0005909461760893464,0.00071193918120116,-1.0260615348815918,-0.20025362074375153,2.2399001121520996,0.025556035339832306,0.0006809196784161031,3.216579898435157e-06,0.00018929174984805286,4.080351829528809,90.0,0.0,0.0,0.0,0.0,0.0,32.766,0.302,0.28,0.384,0.028,2017.7498779296875,810.03076171875,32.342830657958984,,False,
1783642383.2374551,2026-07-09T17:13:03,205355,20260709_171258,,,,,,ground_idle,,,,,,,,,False,-0.005430479533970356,-0.015629729256033897,0.9976353049278259,0.1638931930065155,0.2101227194070816,0.005447790492326021,-1.0,-1.0,82.0,27.0,0.027,-0.01090569794178009,-0.02307112328708172,0.025563083589076996,-0.002168352948501706,-0.0005909461760893464,0.00071193918120116,-1.0260615348815918,-0.20025362074375153,2.2399001121520996,0.025556035339832306,0.0006809196784161031,3.216579898435157e-06,0.00018929174984805286,4.080351829528809,90.0,0.0,0.0,0.0,0.0,0.0,32.766,0.302,0.28,0.384,0.028,2017.7498779296875,810.03076171875,32.342830657958984,,False,
1783642383.247616,2026-07-09T17:13:03,205365,20260709_171258,,,,,,ground_idle,,,,,,,,,False,-0.0071006519719958305,-0.016643278300762177,0.9996298551559448,0.13037645816802979,-0.12235574424266815,-0.06063702702522278,1.0,1.0,95.0,25.0,0.025,-0.0108833322301507,-0.02307424508035183,0.025345221161842346,-0.002482589101418853,-0.00039262656355276704,-0.0005317670293152332,-1.0249305963516235,-0.20122738182544708,2.2405295372009277,0.025556035339832306,0.0006809196784161031,3.216579898435157e-06,0.00018929174984805286,4.080351829528809,90.0,0.0,0.0,0.0,0.0,0.0,32.766,0.302,0.28,0.384,0.028,2017.7498779296875,810.03076171875,32.342830657958984,,False,
1783642383.2578518,2026-07-09T17:13:03,205375,20260709_171258,,,,,,ground_idle,,,,,,,,,False,-0.005052308086305857,-0.01828559674322605,1.0004987716674805,0.02880670689046383,-0.1532246619462967,-0.030471956357359886,0.0,-1.0,85.0,25.0,0.025,-0.0108833322301507,-0.02307424508035183,0.025345221161842346,-0.002482589101418853,-0.00039262656355276704,-0.0005317670293152332,-1.0249305963516235,-0.20122738182544708,2.2405295372009277,0.025556035339832306,0.0006809196784161031,3.216579898435157e-06,0.00018929174984805286,4.080351829528809,90.0,0.0,0.0,0.0,0.0,0.0,32.766,0.302,0.28,0.384,0.028,2017.7498779296875,810.03076171875,32.342830657958984,,False,
1783642383.2679975,2026-07-09T17:13:03,205385,20260709_171258,,,,,,ground_idle,,,,,,,,,False,-0.005052308086305857,-0.01828559674322605,1.0004987716674805,0.02880670689046383,-0.1532246619462967,-0.030471956357359886,-1.0,-1.0,88.0,25.0,0.025,-0.010229896754026413,-0.022728940472006798,0.025333432480692863,6.954126001801342e-05,0.0013804110931232572,-0.0006123176426626742,-1.03312349319458,-0.22373081743717194,2.2410309314727783,0.02533378265798092,-0.0005906401784159243,3.3566368529136525e-06,0.00019630292081274092,4.080351829528809,90.0,0.0,0.0,0.0,0.0,0.0,32.766,0.302,0.28,0.384,0.028,2017.771728515625,810.0288696289062,32.34881591796875,,False,
1783642383.2781444,2026-07-09T17:13:03,205395,20260709_171258,,,,,,ground_idle,,,,,,,,,False,-0.005129870492964983,-0.018827486783266068,0.9984407424926758,0.024853428825736046,-0.028363773599267006,0.00447178864851594,0.0,1.0,86.0,25.0,0.025,-0.010229896754026413,-0.022728940472006798,0.025333432480692863,6.954126001801342e-05,0.0013804110931232572,-0.0006123176426626742,-1.03312349319458,-0.22373081743717194,2.2410309314727783,0.02533378265798092,-0.0005906401784159243,3.3566368529136525e-06,0.00019630292081274092,4.080351829528809,90.0,0.0,0.0,0.0,0.0,0.0,32.766,0.302,0.28,0.384,0.028,2017.771728515625,810.0288696289062,32.34881591796875,,False,
1783642383.2882895,2026-07-09T17:13:03,205405,20260709_171258,,,,,,ground_idle,,,,,,,,,False,-0.0063033937476575375,-0.019983600825071335,0.9981746673583984,-0.10509318113327026,0.2689175009727478,-0.04194618761539459,1.0,1.0,100.0,25.0,0.025,-0.010840336792171001,-0.02307305485010147,0.02532278746366501,-0.0026097127702087164,-0.00022724737937096506,-0.0006411119247786701,-1.0204555988311768,-0.20196639001369476,2.2417874336242676,0.02533378265798092,-0.0005906401784159243,3.3566368529136525e-06,0.00019630292081274092,4.080351829528809,90.0,0.0,0.0,0.0,0.0,0.0,32.766,0.302,0.28,0.384,0.028,2017.771728515625,810.0288696289062,32.34881591796875,,False,
1783642383.2984364,2026-07-09T17:13:03,205415,20260709_171258,,,,,,ground_idle,,,,,,,,,False,-0.005649781785905361,-0.01977911964058876,1.0004903078079224,0.15427859127521515,-0.2813441753387451,-0.04872577637434006,-1.0,-1.0,77.0,25.0,0.025,-0.010840336792171001,-0.02307305485010147,0.02532278746366501,-0.0026097127702087164,-0.00022724737937096506,-0.0006411119247786701,-1.0204555988311768,-0.20196639001369476,2.2417874336242676,0.02533378265798092,-0.0005906401784159243,3.3566368529136525e-06,0.00019630292081274092,4.080351829528809,90.0,0.0,0.0,0.0,0.0,0.0,32.766,0.302,0.28,0.384,0.028,2017.771728515625,810.0288696289062,32.34881591796875,,False,
1783642383.3085942,2026-07-09T17:13:03,205425,20260709_171258,,,,,,ground_idle,,,,,,,,,False,-0.005224301479756832,-0.018440986052155495,0.9998635649681091,0.005624979268759489,-0.13647758960723877,0.20477543771266937,0.0,0.0,81.0,26.0,0.026,-0.01055118441581726,-0.02275281772017479,0.025613868609070778,-0.001587047940120101,0.0008107224712148309,0.0006452817469835281,-1.0290898084640503,-0.21538032591342926,2.2411885261535645,0.02533378265798092,-0.0005906401784159243,3.3566368529136525e-06,0.00019630292081274092,4.080351829528809,90.0,0.0,0.0,0.0,0.0,0.0,32.766,0.302,0.28,0.384,0.028,2017.771728515625,810.0288696289062,32.34881591796875,,False,
1783642383.3188457,2026-07-09T17:13:03,205435,20260709_171258,,,,,,ground_idle,,,,,,,,,False,-0.003335872432217002,-0.02040274068713188,0.9987567067146301,-0.09822437167167664,-0.01662077195942402,0.08870088309049606,1.0,1.0,88.0,26.0,0.026,-0.01055118441581726,-0.02275281772017479,0.025613868609070778,-0.001587047940120101,0.0008107224712148309,0.0006452817469835281,-1.0290898084640503,-0.21538032591342926,2.2411885261535645,0.025621194392442703,0.0007250296184793115,3.2908269531617407e-06,0.00019178986258339137,4.080351829528809,90.0,0.0,0.0,0.0,0.0,0.0,32.766,32.766,0.28500000000000003,0.391,0.026000000000000002,2017.771728515625,810.0288696289062,32.34881591796875,,False,
1783642383.3290114,2026-07-09T17:13:03,205447,20260709_171258,,,,,,ground_idle,,,,,,,,,False,-0.005269801244139671,-0.019710183143615723,0.9986952543258667,-0.012419534847140312,0.1297830492258072,-0.03728587180376053,1.0,0.0,91.0,26.0,0.026,-0.010866822674870491,-0.023081427440047264,0.025628414005041122,-0.0030410215258598328,-0.000954168033786118,0.0006958545418456197,-1.0185410976409912,-0.20202916860580444,2.2421417236328125,0.025621194392442703,0.0007250296184793115,3.2908269531617407e-06,0.00019178986258339137,4.080351829528809,90.0,0.0,0.0,0.0,0.0,0.0,32.766,32.766,0.28500000000000003,0.391,0.026000000000000002,2017.771728515625,810.0288696289062,32.34881591796875,,False,
1783642383.3391554,2026-07-09T17:13:03,205455,20260709_171258,,,,,,ground_idle,,,,,,,,,False,-0.006663753185421228,-0.019909167662262917,0.9991504549980164,0.1201835349202156,0.16213491559028625,0.030727751553058624,1.0,0.0,91.0,26.0,0.026,-0.010866822674870491,-0.023081427440047264,0.025628414005041122,-0.0030410215258598328,-0.000954168033786118,0.0006958545418456197,-1.0185410976409912,-0.20202916860580444,2.2421417236328125,0.025621194392442703,0.0007250296184793115,3.2908269531617407e-06,0.00019178986258339137,4.080351829528809,90.0,0.0,0.0,0.0,0.0,0.0,32.766,32.766,0.28500000000000003,0.391,0.026000000000000002,2017.771728515625,810.0288696289062,32.34881591796875,,False,
1783642383.3492975,2026-07-09T17:13:03,205467,20260709_171258,,,,,,ground_idle,,,,,,,,,False,-0.005050121806561947,-0.018784645944833755,0.9996946454048157,-0.15596401691436768,0.11105884611606598,-0.23656947910785675,0.0,0.0,93.0,23.0,0.023,-0.010871618054807186,-0.02343837544322014,0.024546345695853233,-0.00301354774273932,-0.002889692084863782,-0.005062088370323181,-1.0072081089019775,-0.2042151540517807,2.243706464767456,0.025621194392442703,0.0007250296184793115,3.2908269531617407e-06,0.00019178986258339137,4.080351829528809,90.0,0.0,0.0,0.0,0.0,0.0,32.766,32.766,0.28500000000000003,0.391,0.026000000000000002,2017.771728515625,810.0288696289062,32.34881591796875,,False,
1783642383.3594353,2026-07-09T17:13:03,205475,20260709_171258,,,,,,ground_idle,,,,,,,,,False,-0.002130580600351095,-0.020157745108008385,0.99935382604599,-0.22852252423763275,-0.34995803236961365,0.02493854984641075,0.0,0.0,93.0,23.0,0.023,-0.010871618054807186,-0.02343837544322014,0.024546345695853233,-0.00301354774273932,-0.002889692084863782,-0.005062088370323181,-1.0072081089019775,-0.2042151540517807,2.243706464767456,0.025621194392442703,0.0007250296184793115,3.2908269531617407e-06,0.00019178986258339137,4.080351829528809,90.0,0.0,0.0,0.0,0.0,0.0,32.766,32.766,0.28500000000000003,0.391,0.026000000000000002,2017.771728515625,810.0288696289062,32.34881591796875,,False,
1783642383.3695753,2026-07-09T17:13:03,205485,20260709_171258,,,,,,ground_idle,,,,,,,,,False,-0.002130580600351095,-0.020157745108008385,0.99935382604599,-0.22852252423763275,-0.34995803236961365,0.02493854984641075,-1.0,0.0,98.0,23.0,0.023,-0.010892730206251144,-0.023117629811167717,0.024445651099085808,-0.003131475066766143,-0.0015168660320341587,-0.0050834971480071545,-1.0203371047973633,-0.2104620337486267,2.2435264587402344,0.024445651099085808,-0.005119184032082558,3.4049116948153824e-06,0.0001969792356248945,4.080351829528809,90.0,0.0,0.0,0.0,0.0,0.0,32.766,32.766,0.28500000000000003,0.391,0.026000000000000002,2017.771728515625,810.0287475585938,32.351158142089844,,False,
1783642383.3797526,2026-07-09T17:13:03,205498,20260709_171258,,,,,,ground_idle,,,,,,,,,False,-0.003072366351261735,-0.01738070882856846,0.9985708594322205,0.474170058965683,0.0683797225356102,0.2208968698978424,-1.0,0.0,92.0,23.0,0.023,-0.010903570801019669,-0.022792693227529526,0.024342307820916176,-0.00268166558817029,-0.0001337679714197293,-0.0053152237087488174,-1.0203371047973633,-0.2104620337486267,2.2435264587402344,0.024445651099085808,-0.005119184032082558,3.4049116948153824e-06,0.0001969792356248945,4.080351829528809,90.0,0.0,0.0,0.0,0.0,0.0,32.766,32.766,0.28500000000000003,0.391,0.026000000000000002,2017.771728515625,810.0287475585938,32.351158142089844,,False,
1783642383.3898914,2026-07-09T17:13:03,205507,20260709_171258,,,,,,ground_idle,,,,,,,,,False,-0.0033912216313183308,-0.019086632877588272,1.001464605331421,0.18902404606342316,0.13164927065372467,0.12763278186321259,0.0,-2.0,75.0,23.0,0.023,-0.010903570801019669,-0.022792693227529526,0.024342307820916176,-0.00268166558817029,-0.0001337679714197293,-0.0053152237087488174,-1.032300353050232,-0.21415802836418152,2.243729591369629,0.024445651099085808,-0.005119184032082558,3.4049116948153824e-06,0.0001969792356248945,4.080351829528809,90.0,0.0,0.0,0.0,0.0,0.0,32.766,32.766,0.28500000000000003,0.391,0.026000000000000002,2017.771728515625,810.0287475585938,32.351158142089844,,False,
1783642383.400029,2026-07-09T17:13:03,205518,20260709_171258,,,,,,ground_idle,,,,,,,,,False,-0.0006343606510199606,-0.017189854755997658,1.0005706548690796,0.2512408196926117,-0.06139582768082619,0.20825184881687164,0.0,0.0,81.0,25.0,0.025,-0.010233495384454727,-0.022762225940823555,0.02455774135887623,0.0006493430701084435,-4.1421135392738506e-05,-0.003636070527136326,-1.032300353050232,-0.21415802836418152,2.243729591369629,0.024445651099085808,-0.005119184032082558,3.4049116948153824e-06,0.0001969792356248945,4.080351829528809,90.0,0.0,0.0,0.0,0.0,0.0,32.766,32.766,0.28500000000000003,0.391,0.026000000000000002,2017.771728515625,810.0287475585938,32.351158142089844,,False,
1783642383.4101653,2026-07-09T17:13:03,205527,20260709_171258,,,,,,ground_idle,,,,,,,,,False,-0.002025183057412505,-0.016141805797815323,0.9984403848648071,0.1536349207162857,0.22100071609020233,0.11552705615758896,0.0,-1.0,91.0,25.0,0.025,-0.010233495384454727,-0.022762225940823555,0.02455774135887623,0.0006493430701084435,-4.1421135392738506e-05,-0.003636070527136326,-1.030000925064087,-0.23650217056274414,2.2444379329681396,0.024445651099085808,-0.005119184032082558,3.4049116948153824e-06,0.0001969792356248945,4.080351829528809,90.0,0.0,0.0,0.0,0.0,0.0,32.766,32.766,0.28500000000000003,0.391,0.026000000000000002,2017.771728515625,810.0287475585938,32.351158142089844,,False,
1783642383.4203098,2026-07-09T17:13:03,205538,20260709_171258,,,,,,ground_idle,,,,,,,,,False,-0.0033783980179578066,-0.016862252727150917,0.9976617097854614,-0.0774826854467392,0.2172459065914154,0.08692892640829086,0.0,2.0,95.0,25.0,0.025,-0.010561774484813213,-0.022777151316404343,0.024486448615789413,-0.0005089443293400109,0.0002522172580938786,-0.0038008629344403744,-1.030000925064087,-0.23650217056274414,2.2444379329681396,0.024523524567484856,-0.0036138847935944796,3.3138478556793416e-06,0.0001916594774229452,4.080351829528809,90.0,0.0,0.0,0.0,0.0,0.0,32.766,0.296,0.281,0.387,0.024,2017.771728515625,810.0287475585938,32.351158142089844,,False,
1783642383.4304695,2026-07-09T17:13:03,205545,20260709_171258,,,,,,ground_idle,,,,,,,,,False,-0.003876849077641964,-0.018854208290576935,0.9983702301979065,-0.023534122854471207,-0.13823817670345306,-0.14660502970218658,0.0,2.0,95.0,25.0,0.025,-0.010561774484813213,-0.022777151316404343,0.024486448615789413,-0.0005089443293400109,0.0002522172580938786,-0.0038008629344403744,-1.0280433893203735,-0.22642379999160767,2.245199680328369,0.024523524567484856,-0.0036138847935944796,3.3138478556793416e-06,0.0001916594774229452,4.080351829528809,90.0,0.0,0.0,0.0,0.0,0.0,32.766,0.296,0.281,0.387,0.024,2017.771728515625,810.0287475585938,32.351158142089844,,False,
1783642383.4406114,2026-07-09T17:13:03,205558,20260709_171258,,,,,,ground_idle,,,,,,,,,False,-0.004323079250752926,-0.02008521743118763,0.999399721622467,0.12420108169317245,-0.4094104468822479,-0.02094600349664688,0.0,0.0,94.0,24.0,0.024,-0.010868377052247524,-0.023463966324925423,0.024221519008278847,-0.0018032697262242436,-0.0028476871084421873,-0.005027768202126026,-1.0280433893203735,-0.22642379999160767,2.245199680328369,0.024523524567484856,-0.0036138847935944796,3.3138478556793416e-06,0.0001916594774229452,4.080351829528809,90.0,0.0,0.0,0.0,0.0,0.0,32.766,0.296,0.281,0.387,0.024,2017.771728515625,810.0287475585938,32.351158142089844,,False,
1783642383.4508317,2026-07-09T17:13:03,205567,20260709_171258,,,,,,ground_idle,,,,,,,,,False,-0.005044125951826572,-0.01749200001358986,0.9992978572845459,-0.08357039093971252,-0.10228316485881805,0.06150788068771362,-1.0,-1.0,84.0,24.0,0.024,-0.010868377052247524,-0.023463966324925423,0.024221519008278847,-0.0018032697262242436,-0.0028476871084421873,-0.005027768202126026,-1.0040546655654907,-0.214302197098732,2.2454066276550293,0.024523524567484856,-0.0036138847935944796,3.3138478556793416e-06,0.0001916594774229452,4.080351829528809,90.0,0.0,0.0,0.0,0.0,0.0,32.766,0.296,0.281,0.387,0.024,2017.771728515625,810.0287475585938,32.351158142089844,,False,
1783642383.4609714,2026-07-09T17:13:03,205578,20260709_171258,,,,,,ground_idle,,,,,,,,,False,-0.00398783665150404,-0.01946111209690571,0.9996605515480042,-0.05478084459900856,-0.004763780627399683,-0.20214928686618805,0.0,1.0,90.0,24.0,0.024,-0.010858113877475262,-0.02312413789331913,0.024121282622218132,-0.0018146770307794213,-0.0013314085081219673,-0.0051086717285215855,-1.0040546655654907,-0.214302197098732,2.2454066276550293,0.024523524567484856,-0.0036138847935944796,3.3138478556793416e-06,0.0001916594774229452,4.080351829528809,90.0,0.0,0.0,0.0,0.0,0.0,32.766,0.296,0.281,0.387,0.024,2017.771728515625,810.0287475585938,32.351158142089844,,False,
1783642383.4711065,2026-07-09T17:13:03,205585,20260709_171258,,,,,,ground_idle,,,,,,,,,False,-0.004704921506345272,-0.019841575995087624,1.0004210472106934,0.023299723863601685,-0.09983336180448532,-0.13501586019992828,0.0,1.0,90.0,24.0,0.024,-0.010858113877475262,-0.02312413789331913,0.024121282622218132,-0.0018146770307794213,-0.0013314085081219673,-0.0051086717285215855,-1.0157581567764282,-0.21386772394180298,2.2444870471954346,0.024121282622218132,-0.0051766796968877316,3.414136017454439e-06,0.0001967175048775971,4.080351829528809,90.0,0.0,0.0,0.0,0.0,0.0,32.766,0.296,0.281,0.387,0.024,2017.8592529296875,810.02099609375,32.35529327392578,,False,
1783642383.4812412,2026-07-09T17:13:03,205598,20260709_171258,,,,,,ground_idle,,,,,,,,,False,-0.0044070943258702755,-0.01680506020784378,0.9982478022575378,-0.10493143647909164,-0.5452335476875305,0.15167450904846191,-2.0,0.0,94.0,24.0,0.024,-0.010849999263882637,-0.023122793063521385,0.02402213215827942,-0.0017248343210667372,-0.0013980504591017962,-0.0051116314716637135,-1.0157581567764282,-0.21386772394180298,2.2444870471954346,0.024121282622218132,-0.0051766796968877316,3.414136017454439e-06,0.0001967175048775971,4.080351829528809,90.0,0.0,0.0,0.0,0.0,0.0,32.766,0.296,0.281,0.387,0.024,2017.8592529296875,810.02099609375,32.35529327392578,,False,
1783642383.4913776,2026-07-09T17:13:03,205607,20260709_171258,,,,,,ground_idle,,,,,,,,,False,-0.004922093823552132,-0.018466267734766006,0.9988955855369568,0.09211581200361252,-0.03363432362675667,0.16024014353752136,0.0,-1.0,70.0,24.0,0.024,-0.010849999263882637,-0.023122793063521385,0.02402213215827942,-0.0017248343210667372,-0.0013980504591017962,-0.0051116314716637135,-1.0164989233016968,-0.2130402773618698,2.2438957691192627,0.024121282622218132,-0.0051766796968877316,3.414136017454439e-06,0.0001967175048775971,4.080351829528809,90.0,0.0,0.0,0.0,0.0,0.0,32.766,0.296,0.281,0.387,0.024,2017.8592529296875,810.02099609375,32.35529327392578,,False,
1783642383.5015156,2026-07-09T17:13:03,205618,20260709_171258,,,,,,ground_idle,,,,,,,,,False,-0.004745637532323599,-0.019411515444517136,0.9981518387794495,-0.028255924582481384,-0.25052154064178467,0.1117115244269371,0.0,0.0,77.0,25.0,0.025,-0.010553896427154541,-0.02311117760837078,0.02438216656446457,-0.0004543269460555166,-0.0012795001966878772,-0.0030342801474034786,-1.0164989233016968,-0.2130402773618698,2.2438957691192627,0.024121282622218132,-0.0051766796968877316,3.414136017454439e-06,0.0001967175048775971,4.080351829528809,90.0,0.0,0.0,0.0,0.0,0.0,32.766,0.296,0.281,0.387,0.024,2017.8592529296875,810.02099609375,32.35529327392578,,False,
1783642383.5116913,2026-07-09T17:13:03,205627,20260709_171258,,,,,,ground_idle,,,,,,,,,False,-0.0057935952208936214,-0.017958978191018105,0.9998624324798584,0.3084954023361206,0.018232589587569237,-0.07415942847728729,0.0,0.0,87.0,25.0,0.025,-0.010553896427154541,-0.02311117760837078,0.02438216656446457,-0.0004543269460555166,-0.0012795001966878772,-0.0030342801474034786,-1.0166116952896118,-0.22269611060619354,2.2446508407592773,0.024121282622218132,-0.0051766796968877316,3.414136017454439e-06,0.0001967175048775971,4.080351829528809,90.0,0.0,0.0,0.0,0.0,0.0,32.766,0.296,0.281,0.387,0.024,2017.8592529296875,810.02099609375,32.35529327392578,,False,
1783642383.5218472,2026-07-09T17:13:03,205638,20260709_171258,,,,,,ground_idle,,,,,,,,,False,-0.0049249292351305485,-0.018652329221367836,0.9992907047271729,-0.01950189843773842,-0.06476482003927231,-0.21206650137901306,0.0,1.0,88.0,25.0,0.025,-0.0108666205778718,-0.023133743554353714,0.02431994490325451,-0.002111524110659957,-0.001387110911309719,-0.003139323787763715,-1.0166116952896118,-0.22269611060619354,2.2446508407592773,0.024351324886083603,-0.0031656217761337757,3.3159008125949185e-06,0.00019149981380905956,4.080351829528809,90.0,0.0,0.0,0.0,0.0,0.0,32.766,32.766,0.278,0.386,0.027,2017.8592529296875,810.02099609375,32.35529327392578,,False,
1783642383.5319822,2026-07-09T17:13:03,205647,20260709_171258,,,,,,ground_idle,,,,,,,,,False,-0.004008457064628601,-0.019340315833687782,0.9985824823379517,0.09574658423662186,0.07492516934871674,0.15082480013370514,0.0,0.0,89.0,25.0,0.025,-0.0108666205778718,-0.023133743554353714,0.02431994490325451,-0.002111524110659957,-0.001387110911309719,-0.003139323787763715,-1.0157619714736938,-0.209263414144516,2.2459261417388916,0.024351324886083603,-0.0031656217761337757,3.3159008125949185e-06,0.00019149981380905956,4.080351829528809,90.0,0.0,0.0,0.0,0.0,0.0,32.766,32.766,0.278,0.386,0.027,2017.8592529296875,810.02099609375,32.35529327392578,,False,
1783642383.542118,2026-07-09T17:13:03,205658,20260709_171258,,,,,,ground_idle,,,,,,,,,False,-0.00394526869058609,-0.018882082775235176,1.001103401184082,0.07121468335390091,-0.06872028857469559,0.1610792726278305,1.0,0.0,101.0,23.0,0.023,-0.010865917429327965,-0.023479336872696877,0.02371903322637081,-0.0020627877674996853,-0.0031710704788565636,-0.00595869543030858,-1.0157619714736938,-0.209263414144516,2.2459261417388916,0.024351324886083603,-0.0031656217761337757,3.3159008125949185e-06,0.00019149981380905956,4.080351829528809,90.0,0.0,0.0,0.0,0.0,0.0,32.766,32.766,0.278,0.386,0.027,2017.8592529296875,810.02099609375,32.35529327392578,,False,
1783642383.5522573,2026-07-09T17:13:03,205667,20260709_171258,,,,,,ground_idle,,,,,,,,,False,-0.0030914207454770803,-0.018439479172229767,1.0019938945770264,-0.10387580841779709,0.17633645236492157,-0.14996708929538727,-2.0,-1.0,89.0,23.0,0.023,-0.010865917429327965,-0.023479336872696877,0.02371903322637081,-0.0020627877674996853,-0.0031710704788565636,-0.00595869543030858,-1.0031987428665161,-0.20953667163848877,2.246546745300293,0.024351324886083603,-0.0031656217761337757,3.3159008125949185e-06,0.00019149981380905956,4.080351829528809,90.0,0.0,0.0,0.0,0.0,0.0,32.766,32.766,0.278,0.386,0.027,2017.8592529296875,810.02099609375,32.35529327392578,,False,
1783642383.5624502,2026-07-09T17:13:03,205678,20260709_171258,,,,,,ground_idle,,,,,,,,,False,-0.005379990674555302,-0.018147531896829605,0.9999868869781494,0.33923691511154175,-0.038211073726415634,0.16346760094165802,1.0,-2.0,94.0,23.0,0.023,-0.009946768172085285,-0.023111974820494652,0.023605555295944214,0.0023004503455013037,-0.0014434985350817442,-0.00558884721249342,-1.0031987428665161,-0.20953667163848877,2.246546745300293,0.024351324886083603,-0.0031656217761337757,3.3159008125949185e-06,0.00019149981380905956,4.080351829528809,90.0,0.0,0.0,0.0,0.0,0.0,32.766,32.766,0.278,0.386,0.027,2017.8592529296875,810.02099609375,32.35529327392578,,False,
1783642383.5727162,2026-07-09T17:13:03,205687,20260709_171258,,,,,,ground_idle,,,,,,,,,False,-0.006027422845363617,-0.020298408344388008,0.9990799427032471,0.42737919092178345,-0.09736970067024231,-0.051368147134780884,0.0,3.0,100.0,23.0,0.023,-0.009946768172085285,-0.023111974820494652,0.023605555295944214,0.0023004503455013037,-0.0014434985350817442,-0.00558884721249342,-1.016064167022705,-0.24277150630950928,2.2476258277893066,0.023609133437275887,-0.005599500611424446,3.4135146051994525e-06,0.0001966663112398237,4.0750732421875,90.0,0.0,0.0,0.0,0.0,0.0,32.766,32.766,0.278,0.386,0.027,2017.7388916015625,810.0319213867188,32.36239242553711,,False,
1783642383.582893,2026-07-09T17:13:03,205701,20260709_171258,,,,,,ground_idle,,,,,,,,,False,-0.006298549007624388,-0.020836183801293373,0.9996111392974854,-0.14439864456653595,0.0845121443271637,0.16800418496131897,0.0,0.0,102.0,23.0,0.023,-0.010876680724322796,-0.023158013820648193,0.02349686622619629,-0.002336097415536642,-0.0019216601504012942,-0.005611272994428873,-1.0126053094863892,-0.20976337790489197,2.2472689151763916,0.023609133437275887,-0.005599500611424446,3.4135146051994525e-06,0.0001966663112398237,4.0750732421875,90.0,0.0,0.0,0.0,0.0,0.0,32.766,32.766,0.278,0.386,0.027,2017.7388916015625,810.0319213867188,32.36239242553711,,False,
1783642383.5930386,2026-07-09T17:13:03,205707,20260709_171258,,,,,,ground_idle,,,,,,,,,False,-0.0038435792084783316,-0.019057638943195343,0.9979109764099121,0.23641763627529144,0.05788519233465195,-0.03680858016014099,0.0,-2.0,77.0,23.0,0.023,-0.010876680724322796,-0.023158013820648193,0.02349686622619629,-0.002336097415536642,-0.0019216601504012942,-0.005611272994428873,-1.0126053094863892,-0.20976337790489197,2.2472689151763916,0.023609133437275887,-0.005599500611424446,3.4135146051994525e-06,0.0001966663112398237,4.0750732421875,90.0,0.0,0.0,0.0,0.0,0.0,32.766,32.766,0.278,0.386,0.027,2017.7388916015625,810.0319213867188,32.36239242553711,,False,
1783642383.603181,2026-07-09T17:13:03,205721,20260709_171258,,,,,,ground_idle,,,,,,,,,False,-0.0037026195786893368,-0.017834121361374855,0.997816264629364,-0.023286275565624237,0.18958617746829987,-0.06154028698801994,0.0,0.0,71.0,26.0,0.026,-0.01025815773755312,-0.023123931139707565,0.024538030847907066,0.00046253163600340486,-0.0019453685963526368,-0.00016804062761366367,-1.0142145156860352,-0.23106525838375092,2.2484538555145264,0.023609133437275887,-0.005599500611424446,3.4135146051994525e-06,0.0001966663112398237,4.0750732421875,90.0,0.0,0.0,0.0,0.0,0.0,32.766,32.766,0.278,0.386,0.027,2017.7388916015625,810.0319213867188,32.36239242553711,,False,
1783642383.613348,2026-07-09T17:13:03,205727,20260709_171258,,,,,,ground_idle,,,,,,,,,False,-0.0052468255162239075,-0.017599161714315414,1.000709056854248,0.13562606275081635,0.18228544294834137,0.37008416652679443,0.0,2.0,90.0,26.0,0.026,-0.01025815773755312,-0.023123931139707565,0.024538030847907066,0.00046253163600340486,-0.0019453685963526368,-0.00016804062761366367,-1.0142145156860352,-0.23106525838375092,2.2484538555145264,0.023609133437275887,-0.005599500611424446,3.4135146051994525e-06,0.0001966663112398237,4.0750732421875,90.0,0.0,0.0,0.0,0.0,0.0,32.766,32.766,0.278,0.386,0.027,2017.7388916015625,810.0319213867188,32.36239242553711,,False,
1783642383.6235037,2026-07-09T17:13:03,205741,20260709_171258,,,,,,ground_idle,,,,,,,,,False,-0.005404389929026365,-0.01810036413371563,1.0017211437225342,-0.01038796454668045,-0.33474788069725037,0.04117269441485405,0.0,-1.0,89.0,26.0,0.026,-0.010562117211520672,-0.023124616593122482,0.024535343050956726,-0.001063388423062861,-0.001792553230188787,-0.00012568949023261666,-1.0139907598495483,-0.22420980036258698,2.2498178482055664,0.024537358433008194,-0.0003114638093393296,3.3149970022350317e-06,0.0001915272732730955,4.080351829528809,90.0,0.0,0.0,0.0,0.0,0.0,32.766,32.766,0.281,32.766,0.027,2017.7388916015625,810.0319213867188,32.36239242553711,,False,
1783642383.6338396,2026-07-09T17:13:03,205747,20260709_171258,,,,,,ground_idle,,,,,,,,,False,-0.0032743175979703665,-0.01821141503751278,1.0006866455078125,0.2263529896736145,-0.09955363720655441,0.12517999112606049,1.0,1.0,89.0,26.0,0.026,-0.010562117211520672,-0.023124616593122482,0.024535343050956726,-0.001063388423062861,-0.001792553230188787,-0.00012568949023261666,-1.0139907598495483,-0.22420980036258698,2.2498178482055664,0.024537358433008194,-0.0003114638093393296,3.3149970022350317e-06,0.0001915272732730955,4.080351829528809,90.0,0.0,0.0,0.0,0.0,0.0,32.766,32.766,0.281,32.766,0.027,2017.7388916015625,810.0319213867188,32.36239242553711,,False,
1783642383.6440184,2026-07-09T17:13:03,205761,20260709_171258,,,,,,ground_idle,,,,,,,,,False,-0.00256598019041121,-0.01784437708556652,1.0007069110870361,-0.010902304202318192,-0.08312367647886276,-0.17364351451396942,-1.0,2.0,95.0,24.0,0.024,-0.011423704214394093,-0.02316322736442089,0.024312496185302734,-0.004917909391224384,-0.0018293964676558971,-0.0009693474275991321,-1.01210355758667,-0.1931128054857254,2.2496767044067383,0.024537358433008194,-0.0003114638093393296,3.3149970022350317e-06,0.0001915272732730955,4.080351829528809,90.0,0.0,0.0,0.0,0.0,0.0,32.766,32.766,0.281,32.766,0.027,2017.7388916015625,810.0319213867188,32.36239242553711,,False,
1783642383.6541615,2026-07-09T17:13:03,205767,20260709_171258,,,,,,ground_idle,,,,,,,,,False,-0.0002984763996209949,-0.016361556947231293,1.0000742673873901,0.0124976122751832,0.40131959319114685,0.02990957349538803,0.0,-3.0,90.0,24.0,0.024,-0.011423704214394093,-0.02316322736442089,0.024312496185302734,-0.004917909391224384,-0.0018293964676558971,-0.0009693474275991321,-1.01210355758667,-0.1931128054857254,2.2496767044067383,0.024537358433008194,-0.0003114638093393296,3.3149970022350317e-06,0.0001915272732730955,4.080351829528809,90.0,0.0,0.0,0.0,0.0,0.0,32.766,32.766,0.281,32.766,0.027,2017.7388916015625,810.0319213867188,32.36239242553711,,False,
1783642383.6643136,2026-07-09T17:13:03,205781,20260709_171258,,,,,,arming,,,,,,,,,False,-0.0020666709169745445,-0.018517831340432167,0.9989364147186279,0.3516959249973297,-0.1794423609972,-0.08976364135742188,0.0,1.0,92.0,24.0,0.024,-0.010826217010617256,-0.023125367239117622,0.024299077689647675,-0.0013747542398050427,-0.00135854072868824,-0.0009176666499115527,-1.0145431756973267,-0.21678787469863892,2.249818801879883,0.024537358433008194,-0.0003114638093393296,3.3149970022350317e-06,0.0001915272732730955,4.080351829528809,90.0,0.0,0.0,0.0,0.0,0.0,32.766,32.766,0.281,32.766,0.027,2017.7388916015625,810.0319213867188,32.36239242553711,,False,
1783642383.6744869,2026-07-09T17:13:03,205787,20260709_171258,,,,,,arming,,,,,,,,,False,-0.005173855926841497,-0.020100148394703865,0.9978673458099365,-0.029872162267565727,-0.10597063601016998,0.22044728696346283,1.0,0.0,100.0,24.0,0.024,-0.010826217010617256,-0.023125367239117622,0.024299077689647675,-0.0013747542398050427,-0.00135854072868824,-0.0009176666499115527,-1.0145431756973267,-0.21678787469863892,2.249818801879883,0.024299174547195435,-0.0009627348626963794,3.4129370760638267e-06,0.00019671875634230673,4.080351829528809,90.0,0.0,0.0,0.0,0.0,0.0,32.766,32.766,0.281,32.766,0.027,2017.717041015625,810.0338134765625,32.36983871459961,,False,
1783642383.6848972,2026-07-09T17:13:03,205801,20260709_171258,,,,,,arming,,,,,,,,,False,-0.005930818151682615,-0.01904894970357418,0.99637770652771,0.17125722765922546,0.016516264528036118,-0.0659111812710762,0.0,0.0,93.0,24.0,0.024,-0.010823269374668598,-0.023420879617333412,0.024278046563267708,-0.0013933537993580103,-0.0029443372040987015,-0.0012775976210832596,-1.0041109323501587,-0.21378201246261597,2.251521110534668,0.024299174547195435,-0.0009627348626963794,3.4129370760638267e-06,0.00019671875634230673,4.080351829528809,90.0,0.0,0.0,0.0,0.0,0.0,32.766,32.766,0.281,32.766,0.027,2017.717041015625,810.0338134765625,32.36983871459961,,False,
1783642383.6951125,2026-07-09T17:13:03,205807,20260709_171258,,,,,,arming,,,,,,,,,False,-0.005538561847060919,-0.016467886045575142,0.9990258812904358,-0.13442283868789673,-0.1161787137389183,0.12015900015830994,-1.0,-2.0,77.0,24.0,0.024,-0.010823269374668598,-0.023420879617333412,0.024278046563267708,-0.0013933537993580103,-0.0029443372040987015,-0.0012775976210832596,-1.0041109323501587,-0.21378201246261597,2.251521110534668,0.024299174547195435,-0.0009627348626963794,3.4129370760638267e-06,0.00019671875634230673,4.080351829528809,90.0,0.0,0.0,0.0,0.0,0.0,32.766,32.766,0.281,32.766,0.027,2017.717041015625,810.0338134765625,32.36983871459961,,False,
1783642383.7052636,2026-07-09T17:13:03,205821,20260709_171258,,,,,,arming,,,,,,,,,False,-0.003273106412962079,-0.017256859689950943,0.9995036721229553,0.036038897931575775,-0.3015279769897461,0.26297318935394287,0.0,0.0,71.0,22.0,0.022,-0.010265002027153969,-0.023130347952246666,0.02322756126523018,0.0010043162619695067,-0.0013298889389261603,-0.006676278542727232,-1.0169527530670166,-0.2304803431034088,2.2514472007751465,0.024299174547195435,-0.0009627348626963794,3.4129370760638267e-06,0.00019671875634230673,4.080351829528809,90.0,0.0,0.0,0.0,0.0,0.0,32.766,32.766,0.281,32.766,0.027,2017.717041015625,810.0338134765625,32.36983871459961,,False,
1783642383.7154193,2026-07-09T17:13:03,205833,20260709_171258,,,,,,arming,,,,,,,,,False,-0.004388334229588509,-0.01920640654861927,1.0018463134765625,-0.03984484821557999,0.09060255438089371,-0.11864972114562988,0.0,2.0,90.0,22.0,0.022,-0.010265002027153969,-0.023130347952246666,0.02322756126523018,0.0010043162619695067,-0.0013298889389261603,-0.006676278542727232,-1.0169527530670166,-0.2304803431034088,2.2514472007751465,0.02316245622932911,-0.0066245547495782375,3.3148344300570898e-06,0.0001915781176649034,4.080351829528809,90.0,0.0,7000.0,7000.0,7000.0,7000.0,32.766,32.766,0.281,32.766,0.027,2017.717041015625,810.0338134765625,32.36983871459961,,False,
1783642383.7255623,2026-07-09T17:13:03,205841,20260709_171258,,,,,,arming,,,,,,,,,False,-0.004288960713893175,-0.018569165840744972,0.9988110661506653,-0.019723709672689438,0.009460775181651115,-0.11966350674629211,0.0,0.0,90.0,22.0,0.022,-0.010882076807320118,-0.023161835968494415,0.023097222670912743,-0.001909787766635418,-0.0014881680253893137,-0.0064508370123803616,-1.0170625448226929,-0.20576898753643036,2.2510244846343994,0.02316245622932911,-0.0066245547495782375,3.3148344300570898e-06,0.0001915781176649034,4.080351829528809,90.0,0.0,7000.0,7000.0,7000.0,7000.0,32.766,0.304,0.28300000000000003,0.392,0.028,2017.717041015625,810.0338134765625,32.36983871459961,,False,
1783642383.7358248,2026-07-09T17:13:03,205847,20260709_171258,,,,,,arming,,,,,,,,,False,-0.004054945427924395,-0.018503157421946526,0.9975348711013794,0.2639603316783905,0.19124026596546173,-0.141793891787529,0.0,0.0,93.0,22.0,0.022,-0.010882076807320118,-0.023161835968494415,0.023097222670912743,-0.001909787766635418,-0.0014881680253893137,-0.0064508370123803616,-1.0170625448226929,-0.20576898753643036,2.2510244846343994,0.02316245622932911,-0.0066245547495782375,3.3148344300570898e-06,0.0001915781176649034,4.080351829528809,90.0,0.0,7000.0,7000.0,7000.0,7000.0,32.766,0.304,0.28300000000000003,0.392,0.028,2017.717041015625,810.0338134765625,32.36983871459961,,False,
1783642383.7462795,2026-07-09T17:13:03,205861,20260709_171258,,,,,,arming,,,,,,,,,False,-0.004580521024763584,-0.018740719184279442,0.99846351146698,0.2345452606678009,0.18734638392925262,-0.1841059774160385,0.0,0.0,100.0,27.0,0.027,-0.010917994193732738,-0.023167096078395844,0.024616729468107224,-0.001984507543966174,-0.0015447329496964812,0.001391497440636158,-1.0145105123519897,-0.20678764581680298,2.2505042552948,0.02316245622932911,-0.0066245547495782375,3.3148344300570898e-06,0.0001915781176649034,4.080351829528809,90.0,0.0,7000.0,7000.0,7000.0,7000.0,32.766,0.304,0.28300000000000003,0.392,0.028,2017.717041015625,810.0338134765625,32.36983871459961,,False,
1783642383.7565045,2026-07-09T17:13:03,205867,20260709_171258,,,,,,arming,,,,,,,,,False,-0.005984475836157799,-0.019489530473947525,0.9990811347961426,0.08547752350568771,0.25463998317718506,0.0029957727529108524,0.0,0.0,88.0,27.0,0.027,-0.010917994193732738,-0.023167096078395844,0.024616729468107224,-0.001984507543966174,-0.0015447329496964812,0.001391497440636158,-1.0145105123519897,-0.20678764581680298,2.2505042552948,0.02316245622932911,-0.0066245547495782375,3.3148344300570898e-06,0.0001915781176649034,4.080351829528809,90.0,0.0,7000.0,7000.0,7000.0,7000.0,32.766,0.304,0.28300000000000003,0.392,0.028,2017.717041015625,810.0338134765625,32.36983871459961,,False,
1783642383.7667387,2026-07-09T17:13:03,205884,20260709_171258,,,,,,arming,,,,,,,,,False,-0.004872276913374662,-0.018707439303398132,0.9989142417907715,0.22045296430587769,-0.22109633684158325,0.0742138922214508,0.0,0.0,89.0,27.0,0.027,-0.010961096733808517,-0.023200415074825287,0.024643070995807648,-0.0023445398546755314,-0.001804048428311944,0.0012433318188413978,-1.0120095014572144,-0.21039707958698273,2.249913215637207,0.024643070995807648,0.0012040574802085757,3.4130857784475666e-06,0.0001967684511328116,4.080351829528809,90.0,0.0,7000.0,7000.0,7000.0,7000.0,32.766,0.304,0.28300000000000003,0.392,0.028,2017.717041015625,810.0338134765625,32.36983871459961,,False,
1783642383.776913,2026-07-09T17:13:03,205895,20260709_171258,,,,,,arming,,,,,,,,,False,-0.005540923215448856,-0.01908043958246708,0.998780369758606,0.11058947443962097,-0.14195352792739868,0.09882152825593948,0.0,0.0,99.0,27.0,0.027,-0.010961096733808517,-0.023200415074825287,0.024643070995807648,-0.0023445398546755314,-0.001804048428311944,0.0012433318188413978,-1.0120095014572144,-0.21039707958698273,2.249913215637207,0.024643070995807648,0.0012040574802085757,3.4130857784475666e-06,0.0001967684511328116,4.080351829528809,90.0,0.0,7000.0,7000.0,7000.0,7000.0,32.766,0.304,0.28300000000000003,0.392,0.028,2017.722412109375,810.0330810546875,32.3734245300293,,False,
1783642383.7870631,2026-07-09T17:13:03,205905,20260709_171258,,,,,,arming,,,,,,,,,False,-0.006096084136515856,-0.018072061240673065,0.9998352527618408,0.021831771358847618,-0.25254493951797485,0.0861777514219284,0.0,0.0,99.0,27.0,0.027,-0.01101166196167469,-0.02323729358613491,0.024665797129273415,-0.002720852382481098,-0.0018418257823213935,0.0010425342479720712,-1.0084142684936523,-0.20713207125663757,2.2495648860931396,0.024643070995807648,0.0012040574802085757,3.4130857784475666e-06,0.0001967684511328116,4.080351829528809,90.0,0.0,7000.0,7000.0,7000.0,7000.0,32.766,0.304,0.28300000000000003,0.392,0.028,2017.722412109375,810.0330810546875,32.3734245300293,,False,
1783642383.7972152,2026-07-09T17:13:03,205915,20260709_171258,,,,,,arming,,,,,,,,,False,-0.003303410718217492,-0.018420875072479248,0.9996395111083984,0.10713403671979904,0.20176254212856293,-0.020832093432545662,2.0,0.0,77.0,27.0,0.027,-0.01101166196167469,-0.02323729358613491,0.024665797129273415,-0.002720852382481098,-0.0018418257823213935,0.0010425342479720712,-1.0084142684936523,-0.20713207125663757,2.2495648860931396,0.024643070995807648,0.0012040574802085757,3.4130857784475666e-06,0.0001967684511328116,4.080351829528809,90.0,0.0,7000.0,7000.0,7000.0,7000.0,32.766,0.304,0.28300000000000003,0.392,0.028,2017.722412109375,810.0330810546875,32.3734245300293,,False,
1783642383.8073695,2026-07-09T17:13:03,205921,20260709_171258,,,,,,arming,,,,,,,,,False,-0.003303410718217492,-0.018420875072479248,0.9996395111083984,0.10713403671979904,0.20176254212856293,-0.020832093432545662,-2.0,-1.0,76.0,23.0,0.023,-0.01060581486672163,-0.02321944572031498,0.02393258735537529,-0.0009679358918219805,-0.0017281424952670932,-0.0028059929609298706,-1.008342981338501,-0.2199057787656784,2.251445770263672,0.024643070995807648,0.0012040574802085757,3.4130857784475666e-06,0.0001967684511328116,4.080351829528809,90.0,0.0,7000.0,7000.0,7000.0,7000.0,32.766,0.304,0.28300000000000003,0.392,0.028,2017.722412109375,810.0330810546875,32.3734245300293,,False,
1783642383.8175187,2026-07-09T17:13:03,205934,20260709_171258,,,,,,arming,,,,,,,,,False,-0.004149420652538538,-0.018563320860266685,0.999851405620575,0.19405898451805115,-0.2920456826686859,0.1685735583305359,0.0,0.0,92.0,23.0,0.023,-0.01060581486672163,-0.02321944572031498,0.02393258735537529,-0.0009679358918219805,-0.0017281424952670932,-0.0028059929609298706,-1.008342981338501,-0.2199057787656784,2.251445770263672,0.02390447072684765,-0.0028356846887618303,3.315041794849094e-06,0.0001916039764182642,4.080351829528809,90.0,0.0,7000.0,7000.0,7000.0,7000.0,32.766,32.766,0.28,0.377,0.027,2017.722412109375,810.0330810546875,32.3734245300293,,False,
1783642383.8278592,2026-07-09T17:13:03,205945,20260709_171258,,,,,,arming,,,,,,,,,False,-0.0052926018834114075,-0.016441134735941887,0.9996829032897949,0.10515621304512024,0.019404498860239983,0.008226944133639336,0.0,1.0,88.0,23.0,0.023,-0.010997431352734566,-0.023237749934196472,0.023876305669546127,-0.0026787908282130957,-0.001789210014976561,-0.0028347058687359095,-1.0091631412506104,-0.20459656417369843,2.2517120838165283,0.02390447072684765,-0.0028356846887618303,3.315041794849094e-06,0.0001916039764182642,4.080351829528809,90.0,0.0,7000.0,7000.0,7000.0,7000.0,32.766,32.766,0.28,0.377,0.027,2017.722412109375,810.0330810546875,32.3734245300293,,False,
1783642383.8380394,2026-07-09T17:13:03,205955,20260709_171258,,,,,,arming,,,,,,,,,False,-0.0028643389232456684,-0.017052197828888893,0.998893141746521,-0.06122809275984764,-0.33737826347351074,-0.12996390461921692,0.0,0.0,92.0,23.0,0.023,-0.010997431352734566,-0.023237749934196472,0.023876305669546127,-0.0026787908282130957,-0.001789210014976561,-0.0028347058687359095,-1.0091631412506104,-0.20459656417369843,2.2517120838165283,0.02390447072684765,-0.0028356846887618303,3.315041794849094e-06,0.0001916039764182642,4.080351829528809,90.0,0.0,7000.0,7000.0,7000.0,7000.0,32.766,32.766,0.28,0.377,0.027,2017.722412109375,810.0330810546875,32.3734245300293,,False,
1783642383.8481863,2026-07-09T17:13:03,205965,20260709_171258,,,,,,arming,,,,,,,,,False,-0.0021555847488343716,-0.0178829412907362,0.9993060827255249,-0.0638594925403595,0.2057376503944397,0.15060345828533173,0.0,0.0,96.0,23.0,0.023,-0.011054984293878078,-0.023277344182133675,0.02346646599471569,-0.0029637995176017284,-0.0016589798033237457,-0.004629792645573616,-1.0073968172073364,-0.20130755007266998,2.2509846687316895,0.02390447072684765,-0.0028356846887618303,3.315041794849094e-06,0.0001916039764182642,4.080351829528809,90.0,0.0,7000.0,7000.0,7000.0,7000.0,32.766,32.766,0.28,0.377,0.027,2017.722412109375,810.0330810546875,32.3734245300293,,False,
1783642383.8583376,2026-07-09T17:13:03,205975,20260709_171258,,,,,,arming,,,,,,,,,False,-0.003972193226218224,-0.017389528453350067,0.9951702356338501,-0.3292146325111389,-0.5604742169380188,0.3316064476966858,0.0,0.0,91.0,23.0,0.023,-0.011054984293878078,-0.023277344182133675,0.02346646599471569,-0.0029637995176017284,-0.0016589798033237457,-0.004629792645573616,-1.0073968172073364,-0.20130755007266998,2.2509846687316895,0.02390447072684765,-0.0028356846887618303,3.315041794849094e-06,0.0001916039764182642,4.080351829528809,90.0,0.0,7000.0,7000.0,7000.0,7000.0,32.766,32.766,0.28,0.377,0.027,2017.722412109375,810.0330810546875,32.3734245300293,,False,
1783642383.8684955,2026-07-09T17:13:03,205985,20260709_171258,,,,,,arming,,,,,,,,,False,-0.003972193226218224,-0.017389528453350067,0.9951702356338501,-0.3292146325111389,-0.5604742169380188,0.3316064476966858,0.0,-1.0,86.0,23.0,0.023,-0.010650710202753544,-0.023264847695827484,0.023373082280158997,-0.0008006658172234893,-0.0014443269465118647,-0.004818251356482506,-1.007469654083252,-0.21290208399295807,2.247746229171753,0.023373082280158997,-0.004845489282160997,3.413266540519544e-06,0.0001967809075722471,4.053958892822266,90.0,0.0,7000.0,7000.0,7000.0,7000.0,32.766,32.766,0.28,0.377,0.027,2017.799072265625,810.026611328125,32.377925872802734,,False,
1783642383.8786457,2026-07-09T17:13:03,205995,20260709_171258,,,,,,arming,,,,,,,,,False,-0.0037473503034561872,-0.018712211400270462,1.003679871559143,0.07337484508752823,-0.057648204267024994,-0.06823787093162537,0.0,0.0,99.0,23.0,0.023,-0.010650710202753544,-0.023264847695827484,0.023373082280158997,-0.0008006658172234893,-0.0014443269465118647,-0.004818251356482506,-1.007469654083252,-0.21290208399295807,2.247746229171753,0.023373082280158997,-0.004845489282160997,3.413266540519544e-06,0.0001967809075722471,4.053958892822266,90.0,0.0,7000.0,7000.0,7000.0,7000.0,32.766,32.766,0.28,0.377,0.027,2017.799072265625,810.026611328125,32.377925872802734,,False,
1783642383.888792,2026-07-09T17:13:03,206007,20260709_171258,,,,,,arming,,,,,,,,,False,-0.001413869671523571,-0.01537395641207695,0.9997249245643616,-0.07585302740335464,-0.1374378800392151,0.38153180480003357,0.0,0.0,68.0,23.0,0.023,-0.011074495501816273,-0.02328670583665371,0.023272734135389328,-0.0025474883150309324,-0.0015420233830809593,-0.0051092831417918205,-1.0078486204147339,-0.19626152515411377,2.2512099742889404,0.023373082280158997,-0.004845489282160997,3.413266540519544e-06,0.0001967809075722471,4.053958892822266,90.0,0.0,7000.0,7000.0,7000.0,7000.0,32.766,32.766,0.28,0.377,0.027,2017.799072265625,810.026611328125,32.377925872802734,,False,
1783642383.898937,2026-07-09T17:13:03,206017,20260709_171258,,,,,,arming,,,,,,,,,False,-0.0008449243614450097,-0.014424260705709457,1.0017869472503662,0.1288498044013977,-0.19819000363349915,0.5388702750205994,1.0,0.0,71.0,25.0,0.025,-0.011074495501816273,-0.02328670583665371,0.023272734135389328,-0.0025474883150309324,-0.0015420233830809593,-0.0051092831417918205,-1.0078486204147339,-0.19626152515411377,2.2512099742889404,0.023373082280158997,-0.004845489282160997,3.413266540519544e-06,0.0001967809075722471,4.053958892822266,90.0,0.0,7000.0,7000.0,7000.0,7000.0,32.766,32.766,0.28,0.377,0.027,2017.799072265625,810.026611328125,32.377925872802734,,False,
1783642383.9090834,2026-07-09T17:13:03,206027,20260709_171258,,,,,,arming,,,,,,,,,False,-0.0017399901989847422,-0.018115688115358353,0.9981759190559387,-0.15736964344978333,-0.07523667812347412,1.005250334739685,0.0,0.0,95.0,25.0,0.025,-0.011079413816332817,-0.023694539442658424,0.02397506684064865,-0.002257666317746043,-0.0029585014563053846,-0.0008923485293053091,-0.9960426688194275,-0.19538342952728271,2.252577304840088,0.023373082280158997,-0.004845489282160997,3.413266540519544e-06,0.0001967809075722471,4.053958892822266,90.0,0.0,7000.0,7000.0,7000.0,7000.0,32.766,32.766,0.28,0.377,0.027,2017.799072265625,810.026611328125,32.377925872802734,,False,
1783642383.9192379,2026-07-09T17:13:03,206037,20260709_171258,,,,,,arming,,,,,,,,,False,-0.00456437049433589,-0.016665294766426086,1.000720500946045,0.7064173817634583,0.14475610852241516,-0.70975261926651,-2.0,0.0,89.0,25.0,0.025,-0.011079413816332817,-0.023694539442658424,0.02397506684064865,-0.002257666317746043,-0.0029585014563053846,-0.0008923485293053091,-0.9960426688194275,-0.19538342952728271,2.252577304840088,0.023967938497662544,-0.0006624096422456205,3.315185949759325e-06,0.00019161144155077636,4.059237480163574,90.0,0.0,7000.0,7000.0,7000.0,7000.0,32.766,32.766,0.28400000000000003,0.394,0.024,2017.799072265625,810.026611328125,32.377925872802734,,False,
1783642383.9293995,2026-07-09T17:13:03,206047,20260709_171258,,,,,,arming,,,,,,,,,False,-0.0036360789090394974,-0.018392788246273994,0.9969746470451355,-0.38491156697273254,-0.5696456432342529,0.4622247815132141,0.0,0.0,92.0,25.0,0.025,-0.011109702289104462,-0.022868329659104347,0.023960979655385017,-0.0019380691228434443,0.0010305442847311497,-0.0007129620644263923,-1.0236917734146118,-0.1925613135099411,2.2546792030334473,0.023967938497662544,-0.0006624096422456205,3.315185949759325e-06,0.00019161144155077636,4.059237480163574,90.0,0.0,7000.0,7000.0,7000.0,7000.0,32.766,32.766,0.28400000000000003,0.394,0.024,2017.799072265625,810.026611328125,32.377925872802734,,False,
1783642383.9395843,2026-07-09T17:13:03,206057,20260709_171258,,,,,,arming,,,,,,,,,False,-0.005816421005874872,-0.019117828458547592,0.994726836681366,-0.28891193866729736,-0.9345866441726685,0.4112544357776642,2.0,0.0,95.0,25.0,0.025,-0.011109702289104462,-0.022868329659104347,0.023960979655385017,-0.0019380691228434443,0.0010305442847311497,-0.0007129620644263923,-1.0236917734146118,-0.1925613135099411,2.2546792030334473,0.023967938497662544,-0.0006624096422456205,3.315185949759325e-06,0.00019161144155077636,4.059237480163574,90.0,0.0,7000.0,7000.0,7000.0,7000.0,32.766,32.766,0.28400000000000003,0.394,0.024,2017.799072265625,810.026611328125,32.377925872802734,,False,
1783642383.949894,2026-07-09T17:13:03,206067,20260709_171258,,,,,,arming,,,,,,,,,False,-0.004284136462956667,-0.021462224423885345,0.9983679056167603,0.019729334861040115,-0.04783492907881737,-0.789100706577301,1.0,0.0,73.0,25.0,0.025,-0.011106661520898342,-0.023710204288363457,0.0243805143982172,-0.002024361863732338,-0.002506590448319912,0.0011018480872735381,-0.9940729141235352,-0.18689768016338348,2.248857259750366,0.023967938497662544,-0.0006624096422456205,3.315185949759325e-06,0.00019161144155077636,4.059237480163574,90.0,0.0,7000.0,7000.0,7000.0,7000.0,32.766,32.766,0.28400000000000003,0.394,0.024,2017.799072265625,810.026611328125,32.377925872802734,,False,
1783642383.9600554,2026-07-09T17:13:03,206077,20260709_171258,,,,,,arming,,,,,,,,,False,-0.005461433902382851,-0.016584094613790512,0.9989864826202393,0.206177219748497,-0.11847628653049469,-0.5785188674926758,-2.0,-1.0,88.0,25.0,0.025,-0.011106661520898342,-0.023710204288363457,0.0243805143982172,-0.002024361863732338,-0.002506590448319912,0.0011018480872735381,-0.9940729141235352,-0.18689768016338348,2.248857259750366,0.023967938497662544,-0.0006624096422456205,3.315185949759325e-06,0.00019161144155077636,4.059237480163574,90.0,0.0,7000.0,7000.0,7000.0,7000.0,32.766,32.766,0.28400000000000003,0.394,0.024,2017.799072265625,810.026611328125,32.377925872802734,,False,
1783642383.9701986,2026-07-09T17:13:03,206085,20260709_171258,,,,,,arming,,,,,,,,,False,-0.005461433902382851,-0.016584094613790512,0.9989864826202393,0.206177219748497,-0.11847628653049469,-0.5785188674926758,-2.0,-1.0,88.0,25.0,0.025,-0.010697117075324059,-0.023264482617378235,0.0243987999856472,-0.00020778148609679192,-0.0009666567202657461,0.00043597762123681605,-1.0105459690093994,-0.19707316160202026,2.2529382705688477,0.0,0.0,1.0,9.999999747378752e-05,4.059237480163574,90.0,0.0,7000.0,7000.0,7000.0,7000.0,32.766,32.766,0.28400000000000003,0.394,0.024,2017.7935791015625,810.0270385742188,32.38069152832031,,False,
1783642383.9803402,2026-07-09T17:13:03,206098,20260709_171258,,,,,,arming,,,,,,,,,False,-0.003041419666260481,-0.016967106610536575,0.997485339641571,-0.36654287576675415,0.29659780859947205,0.5044711232185364,-1.0,0.0,95.0,25.0,0.025,-1.7210646547027864e-05,1.8741237681751954e-06,0.03807610273361206,-0.0017819112399592996,-0.0008325936505571008,2.7221214622841217e-05,-1.0105459690093994,-0.19707316160202026,2.2529382705688477,0.0,0.0,1.0,9.999999747378752e-05,4.059237480163574,90.0,0.0,7000.0,7000.0,7000.0,7000.0,32.766,32.766,0.28400000000000003,0.394,0.024,2017.7935791015625,810.0270385742188,32.38069152832031,,False,
1783642383.9904819,2026-07-09T17:13:03,206107,20260709_171258,,,,,,arming,,,,,,,,,False,-0.009596648626029491,-0.019872503355145454,1.0026577711105347,0.14000573754310608,-0.4139101207256317,0.019564108923077583,0.0,-2.0,77.0,25.0,0.025,-1.7210646547027864e-05,1.8741237681751954e-06,0.03807610273361206,-0.0017819112399592996,-0.0008325936505571008,2.7221214622841217e-05,-0.0016900451155379415,0.002532556187361479,-0.001381431589834392,0.0,0.0,1.0,9.999999747378752e-05,4.059237480163574,90.0,0.0,7000.0,7000.0,7000.0,7000.0,32.766,32.766,0.28400000000000003,0.394,0.024,2017.7935791015625,810.0270385742188,32.38069152832031,,False,
1783642384.0006244,2026-07-09T17:13:04,206118,20260709_171258,,,,,,arming,,,,,,,,,False,-0.0013467721873894334,-0.012421369552612305,1.000019907951355,0.4168964922428131,0.03146659582853317,-0.7178285121917725,0.0,0.0,69.0,23.0,0.023,1.4408674360311124e-05,-4.5111293729860336e-05,0.023002546280622482,-0.0003262872633058578,-0.004278878681361675,-4.869417898589745e-05,-0.0016900451155379415,0.002532556187361479,-0.001381431589834392,0.0,0.0,1.0,9.999999747378752e-05,4.059237480163574,90.0,0.0,7000.0,7000.0,7000.0,7000.0,32.766,32.766,0.28400000000000003,0.394,0.024,2017.7935791015625,810.0270385742188,32.38069152832031,,False,
1783642384.0107872,2026-07-09T17:13:04,206127,20260709_171258,,,,,,arming,,,,,,,,,False,0.0003005661419592798,-0.01987380161881447,1.0002506971359253,-0.03837960585951805,0.6983590126037598,0.05609950050711632,0.0,2.0,97.0,23.0,0.023,1.4408674360311124e-05,-4.5111293729860336e-05,0.023002546280622482,-0.0003262872633058578,-0.004278878681361675,-4.869417898589745e-05,-0.0016118243802338839,-0.010848418809473515,-0.0013614707859233022,0.0,0.0,1.0,9.999999747378752e-05,4.059237480163574,90.0,0.0,7000.0,7000.0,7000.0,7000.0,32.766,32.766,0.28400000000000003,0.394,0.024,2017.7935791015625,810.0270385742188,32.38069152832031,,False,
1783642384.0209363,2026-07-09T17:13:04,206138,20260709_171258,,,,,,arming,,,,,,,,,False,-0.005978725850582123,-0.020736126229166985,0.9956440925598145,0.32156088948249817,-0.6729534268379211,0.06428847461938858,1.0,0.0,87.0,23.0,0.023,-0.00010223982098978013,-0.00018979638116434216,0.02300000563263893,-0.0031336375977844,-0.008387895300984383,-6.880545697640628e-06,-0.0016118243802338839,-0.010848418809473515,-0.0013614707859233022,0.02300012670457363,-1.4929691133147571e-05,6.31226157565834e-06,0.0001499998033978045,4.069794654846191,90.0,0.0,7000.0,7000.0,7000.0,7000.0,32.766,32.766,0.28300000000000003,0.386,0.026000000000000002,2017.7935791015625,810.0270385742188,32.38069152832031,,False,
1783642384.0310948,2026-07-09T17:13:04,206147,20260709_171258,,,,,,arming,,,,,,,,,False,0.001255128299817443,-0.019290044903755188,1.0012407302856445,-0.24261988699436188,0.7133648991584778,0.8803590536117554,0.0,0.0,92.0,23.0,0.023,-0.00010223982098978013,-0.00018979638116434216,0.02300000563263893,-0.0031336375977844,-0.008387895300984383,-6.880545697640628e-06,0.01177019253373146,0.02332475781440735,-0.0002100494602927938,0.02300012670457363,-1.4929691133147571e-05,6.31226157565834e-06,0.0001499998033978045,4.069794654846191,90.0,0.0,7000.0,7000.0,7000.0,7000.0,32.766,32.766,0.28300000000000003,0.386,0.026000000000000002,2017.7935791015625,810.0270385742188,32.38069152832031,,False,
1783642384.0412369,2026-07-09T17:13:04,206158,20260709_171258,,,,,,arming,,,,,,,,,False,-0.01749446988105774,-0.02203487977385521,1.0000067949295044,0.3629092872142792,-0.7074350714683533,-0.0230043176561594,0.0,0.0,94.0,24.0,0.024,-0.00016850543033797294,-0.0003938786394428462,0.02351251058280468,-0.003914917819201946,-0.012237366288900375,0.00047088920837268233,0.01177019253373146,0.02332475781440735,-0.0002100494602927938,0.02300012670457363,-1.4929691133147571e-05,6.31226157565834e-06,0.0001499998033978045,4.069794654846191,90.0,0.0,7000.0,7000.0,7000.0,7000.0,32.766,32.766,0.28300000000000003,0.386,0.026000000000000002,2017.7935791015625,810.0270385742188,32.38069152832031,,False,
1783642384.0513768,2026-07-09T17:13:04,206167,20260709_171258,,,,,,arming,,,,,,,,,False,0.004774926230311394,-0.016075359657406807,0.9990513324737549,-0.16043910384178162,0.9681668281555176,-0.44861939549446106,0.0,-1.0,70.0,24.0,0.024,-0.00016850543033797294,-0.0003938786394428462,0.02351251058280468,-0.003914917819201946,-0.012237366288900375,0.00047088920837268233,0.014146646484732628,0.021556558087468147,-0.0023221878800541162,0.02300012670457363,-1.4929691133147571e-05,6.31226157565834e-06,0.0001499998033978045,4.069794654846191,90.0,0.0,7000.0,7000.0,7000.0,7000.0,32.766,32.766,0.28300000000000003,0.386,0.026000000000000002,2017.7935791015625,810.0270385742188,32.38069152832031,,False,
1783642384.061521,2026-07-09T17:13:04,206178,20260709_171258,,,,,,arming,,,,,,,,,False,-0.015043330378830433,-0.024503052234649658,1.0002021789550781,0.1307201385498047,-0.45492345094680786,-0.5976317524909973,0.0,1.0,91.0,24.0,0.024,-0.0002185054763685912,-0.0005387534038163722,0.02352614887058735,-0.00441319914534688,-0.013955090194940567,0.00034718503593467176,0.014146646484732628,0.021556558087468147,-0.0023221878800541162,0.02300012670457363,-1.4929691133147571e-05,6.31226157565834e-06,0.0001499998033978045,4.069794654846191,90.0,0.0,7000.0,7000.0,7000.0,7000.0,32.766,32.766,0.28300000000000003,0.386,0.026000000000000002,2017.7935791015625,810.0270385742188,32.38069152832031,,False,
1783642384.0717192,2026-07-09T17:13:04,206187,20260709_171258,,,,,,arming,,,,,,,,,False,0.008515877649188042,-0.009539416059851646,0.996231198310852,-0.11409584432840347,0.7055518627166748,-0.3888319730758667,0.0,0.0,95.0,24.0,0.024,-0.0002185054763685912,-0.0005387534038163722,0.02352614887058735,-0.00441319914534688,-0.013955090194940567,0.00034718503593467176,-0.03748514875769615,0.009316316805779934,0.0004541240632534027,0.02352614887058735,0.0003387733013369143,3.4346528536843834e-06,0.0001955719053512439,4.064516067504883,90.0,0.0,7000.0,7000.0,7000.0,7000.0,32.766,32.766,0.28300000000000003,0.386,0.026000000000000002,2017.881103515625,810.019287109375,32.38286590576172,,False,
1783642384.0818782,2026-07-09T17:13:04,206198,20260709_171258,,,,,,arming,,,,,,,,,False,-0.013204303570091724,-0.024364272132515907,1.0002390146255493,-0.13250786066055298,0.04832043498754501,0.4819733798503876,0.0,0.0,94.0,24.0,0.024,-0.00032205565366894007,-0.000852834724355489,0.023529965430498123,-0.005184824578464031,-0.017155585810542107,4.349699338490609e-06,-0.03748514875769615,0.009316316805779934,0.0004541240632534027,0.02352614887058735,0.0003387733013369143,3.4346528536843834e-06,0.0001955719053512439,4.064516067504883,90.0,0.0,7000.0,7000.0,7000.0,7000.0,32.766,32.766,0.28300000000000003,0.386,0.026000000000000002,2017.881103515625,810.019287109375,32.38286590576172,,False,
1783642384.0920198,2026-07-09T17:13:04,206207,20260709_171258,,,,,,arming,,,,,,,,,False,-0.0022907909005880356,-0.017958898097276688,0.9984285831451416,0.19770024716854095,-0.5293095111846924,0.17583586275577545,2.0,0.0,74.0,24.0,0.024,-0.00032205565366894007,-0.000852834724355489,0.023529965430498123,-0.005184824578464031,-0.017155585810542107,4.349699338490609e-06,-0.036094509065151215,0.006522802170366049,-0.003333423985168338,0.02352614887058735,0.0003387733013369143,3.4346528536843834e-06,0.0001955719053512439,4.064516067504883,90.0,0.0,7000.0,7000.0,7000.0,7000.0,32.766,32.766,0.28300000000000003,0.386,0.026000000000000002,2017.881103515625,810.019287109375,32.38286590576172,,False,
1783642384.1021605,2026-07-09T17:13:04,206218,20260709_171258,,,,,,arming,,,,,,,,,False,-0.0057197455316782,-0.019748523831367493,1.0010828971862793,-0.3176938593387604,0.5919236540794373,0.25980934500694275,-3.0,-1.0,72.0,24.0,0.024,-0.00017177003610413522,-0.0007599676609970629,0.023740746080875397,-0.0030565382912755013,-0.015073486603796482,0.0006697206990793347,-0.036094509065151215,0.006522802170366049,-0.003333423985168338,0.02352614887058735,0.0003387733013369143,3.4346528536843834e-06,0.0001955719053512439,4.064516067504883,90.0,0.0,7000.0,7000.0,7000.0,7000.0,32.766,32.766,0.28300000000000003,0.386,0.026000000000000002,2017.881103515625,810.019287109375,32.38286590576172,,False,
1783642384.1123013,2026-07-09T17:13:04,206227,20260709_171258,,,,,,arming,,,,,,,,,False,-0.0067888349294662476,-0.015560315921902657,0.9953352212905884,0.5443989038467407,-1.1356797218322754,-0.13468320667743683,0.0,1.0,94.0,24.0,0.024,-0.00017177003610413522,-0.0007599676609970629,0.023740746080875397,-0.0030565382912755013,-0.015073486603796482,0.0006697206990793347,-0.20067515969276428,-0.08518625795841217,-0.006054341327399015,0.02352614887058735,0.0003387733013369143,3.4346528536843834e-06,0.0001955719053512439,4.064516067504883,90.0,0.0,7000.0,7000.0,7000.0,7000.0,32.766,32.766,0.28300000000000003,0.386,0.026000000000000002,2017.881103515625,810.019287109375,32.38286590576172,,False,
1783642384.1224601,2026-07-09T17:13:04,206238,20260709_171258,,,,,,arming,,,,,,,,,False,0.006239485461264849,-0.01609867624938488,1.0022989511489868,-0.5997259020805359,1.2024877071380615,0.5175876617431641,2.0,0.0,89.0,24.0,0.024,-0.0003696290368679911,-0.0011792994337156415,0.02374955825507641,-0.004685488063842058,-0.01874156855046749,0.00039094238309189677,-0.20067515969276428,-0.08518625795841217,-0.006054341327399015,0.02374505251646042,0.0004528882564045489,2.872524646591046e-06,0.00022790035291109234,4.069794654846191,90.0,0.0,7000.0,7000.0,7000.0,7000.0,32.766,32.766,0.279,0.387,0.027,2017.881103515625,810.019287109375,32.38286590576172,,False,
1783642384.1326015,2026-07-09T17:13:04,206247,20260709_171258,,,,,,arming,,,,,,,,,False,-0.017686525359749794,-0.020293807610869408,0.9954744577407837,0.7975811958312988,-1.099245548248291,-0.05803327634930611,0.0,0.0,93.0,24.0,0.024,-0.0003696290368679911,-0.0011792994337156415,0.02374955825507641,-0.004685488063842058,-0.01874156855046749,0.00039094238309189677,-0.1721557080745697,-0.04801361262798309,-0.00646540243178606,0.02374505251646042,0.0004528882564045489,2.872524646591046e-06,0.00022790035291109234,4.069794654846191,90.0,0.0,7000.0,7000.0,7000.0,7000.0,32.766,32.766,0.279,0.387,0.027,2017.881103515625,810.019287109375,32.38286590576172,,False,
1783642384.1427653,2026-07-09T17:13:04,206261,20260709_171258,,,,,,arming,,,,,,,,,False,0.011869116686284542,-0.014414224773645401,1.0005857944488525,-0.5523576736450195,1.0482076406478882,0.07024072110652924,0.0,0.0,91.0,26.0,0.026,-0.0004758373543154448,-0.0015892297960817814,0.024607419967651367,-0.005292911548167467,-0.021679464727640152,0.004409977700561285,-0.16822600364685059,-0.04915689304471016,-0.00691450759768486,0.02374505251646042,0.0004528882564045489,2.872524646591046e-06,0.00022790035291109234,4.069794654846191,90.0,0.0,7000.0,7000.0,7000.0,7000.0,32.766,32.766,0.279,0.387,0.027,2017.881103515625,810.019287109375,32.38286590576172,,False,
1783642384.152926,2026-07-09T17:13:04,206267,20260709_171258,,,,,,arming,,,,,,,,,False,-0.02237093634903431,-0.02110031247138977,0.9957025647163391,0.6172874569892883,-1.0553622245788574,-0.5186138153076172,0.0,0.0,74.0,26.0,0.026,-0.0004758373543154448,-0.0015892297960817814,0.024607419967651367,-0.005292911548167467,-0.021679464727640152,0.004409977700561285,-0.16822600364685059,-0.04915689304471016,-0.00691450759768486,0.02374505251646042,0.0004528882564045489,2.872524646591046e-06,0.00022790035291109234,4.069794654846191,90.0,0.0,7000.0,7000.0,7000.0,7000.0,32.766,32.766,0.279,0.387,0.027,2017.881103515625,810.019287109375,32.38286590576172,,False,
1783642384.1630704,2026-07-09T17:13:04,206281,20260709_171258,,,,,,arming,,,,,,,,,False,0.01431054063141346,-0.013422063551843166,1.0046008825302124,-0.328643798828125,0.9702723026275635,-0.2552070617675781,0.0,0.0,90.0,26.0,0.026,-0.000589260773267597,-0.002053342293947935,0.02469368278980255,-0.006050870753824711,-0.024719303473830223,0.004259911365807056,-0.1662726104259491,-0.04421122744679451,-0.006201212760061026,0.02374505251646042,0.0004528882564045489,2.872524646591046e-06,0.00022790035291109234,4.069794654846191,90.0,0.0,7000.0,7000.0,7000.0,7000.0,32.766,32.766,0.279,0.387,0.027,2017.881103515625,810.019287109375,32.38286590576172,,False,
1783642384.1732104,2026-07-09T17:13:04,206287,20260709_171258,,,,,,arming,,,,,,,,,False,-0.023777853697538376,-0.021856142207980156,0.994910717010498,0.2324281632900238,-1.0860811471939087,-0.16000254452228546,-2.0,0.0,94.0,26.0,0.026,-0.000589260773267597,-0.002053342293947935,0.02469368278980255,-0.006050870753824711,-0.024719303473830223,0.004259911365807056,-0.1662726104259491,-0.04421122744679451,-0.006201212760061026,0.02471655048429966,0.0043142870999872684,2.952951263068826e-06,0.0002396836644038558,4.064516067504883,90.0,0.0,7000.0,7000.0,7000.0,7000.0,32.766,32.766,0.279,0.387,0.027,2017.7388916015625,810.0319213867188,32.38546371459961,,False,
1783642384.1833723,2026-07-09T17:13:04,206301,20260709_171258,,,,,,arming,,,,,,,,,False,0.0158937219530344,-0.01682095415890217,1.0031195878982544,-0.453614741563797,0.6587062478065491,0.40647339820861816,1.0,1.0,93.0,26.0,0.026,-0.0008529138285666704,-0.0015218937769532204,0.024803968146443367,-0.008140981197357178,-0.018241090700030327,0.0043431902304291725,-0.3827664256095886,-0.012134352698922157,-0.0071239229291677475,0.02471655048429966,0.0043142870999872684,2.952951263068826e-06,0.0002396836644038558,4.064516067504883,90.0,0.0,7000.0,7000.0,7000.0,7000.0,32.766,32.766,0.279,0.387,0.027,2017.7388916015625,810.0319213867188,32.38546371459961,,False,
1783642384.1935263,2026-07-09T17:13:04,206307,20260709_171258,,,,,,arming,,,,,,,,,False,-0.022192038595676422,-0.01793644204735756,0.9941883087158203,0.2300938218832016,-0.505075216293335,-0.29223543405532837,-1.0,-3.0,73.0,26.0,0.026,-0.0008529138285666704,-0.0015218937769532204,0.024803968146443367,-0.008140981197357178,-0.018241090700030327,0.0043431902304291725,-0.3827664256095886,-0.012134352698922157,-0.0071239229291677475,0.02471655048429966,0.0043142870999872684,2.952951263068826e-06,0.0002396836644038558,4.064516067504883,90.0,0.0,7000.0,7000.0,7000.0,7000.0,32.766,32.766,0.279,0.387,0.027,2017.7388916015625,810.0319213867188,32.38546371459961,,False,
1783642384.2036715,2026-07-09T17:13:04,206318,20260709_171258,,,,,,arming,,,,,,,,,False,0.014925701543688774,-0.018841613084077835,1.0039916038513184,0.14985713362693787,0.31094053387641907,0.5032581090927124,0.0,0.0,70.0,23.0,0.023,0.00014084317081142217,-0.0012608070392161608,0.02411971427500248,0.0010181887773796916,-0.015000405721366405,-0.00011996898683719337,-0.3827664256095886,-0.012134352698922157,-0.0071239229291677475,0.02471655048429966,0.0043142870999872684,2.952951263068826e-06,0.0002396836644038558,4.064516067504883,90.0,0.0,7000.0,7000.0,7000.0,7000.0,32.766,32.766,0.279,0.387,0.027,2017.7388916015625,810.0319213867188,32.38546371459961,,False,
1783642384.2138116,2026-07-09T17:13:04,206332,20260709_171258,,,,,,arming,,,,,,,,,False,-0.022665364667773247,-0.012449841015040874,0.9943442940711975,0.2640095055103302,-0.8330024480819702,0.29213669896125793,1.0,2.0,94.0,23.0,0.023,0.00014084317081142217,-0.0012608070392161608,0.02411971427500248,0.0010181887773796916,-0.015000405721366405,-0.00011996898683719337,-0.5013687014579773,-0.22625771164894104,-0.009751684032380581,0.024121245369315147,-8.60631262185052e-05,3.1724339351058006e-06,0.00023349765979219228,4.064516067504883,90.0,0.0,7000.0,7000.0,7000.0,7000.0,32.766,32.766,0.279,0.387,0.027,2017.7388916015625,810.0319213867188,32.38546371459961,,False,
1783642384.22395,2026-07-09T17:13:04,206341,20260709_171258,,,,,,arming,,,,,,,,,False,0.012598376721143723,-0.022654777392745018,1.0056109428405762,0.43484026193618774,0.29397648572921753,0.6791396737098694,0.0,0.0,89.0,23.0,0.023,-0.0005617245915345848,-0.0016655222279950976,0.024120789021253586,-0.005072936415672302,-0.01723860204219818,-0.000152173699461855,-0.48516491055488586,-0.09906408190727234,-0.0075239334255456924,0.024121245369315147,-8.60631262185052e-05,3.1724339351058006e-06,0.00023349765979219228,4.069794654846191,90.0,0.0,7000.0,7000.0,7000.0,7000.0,32.766,32.766,0.279,0.38,0.025,2017.7388916015625,810.0319213867188,32.38546371459961,,False,
1783642384.2340865,2026-07-09T17:13:04,206347,20260709_171258,,,,,,arming,,,,,,,,,False,-0.020263157784938812,-0.012637432664632797,0.9927060604095459,-0.04342997446656227,-0.11964348703622818,0.30642154812812805,0.0,0.0,97.0,23.0,0.023,-0.0005617245915345848,-0.0016655222279950976,0.024120789021253586,-0.005072936415672302,-0.01723860204219818,-0.000152173699461855,-0.48516491055488586,-0.09906408190727234,-0.0075239334255456924,0.024121245369315147,-8.60631262185052e-05,3.1724339351058006e-06,0.00023349765979219228,4.069794654846191,90.0,0.0,7000.0,7000.0,7000.0,7000.0,32.766,32.766,0.279,0.38,0.025,2017.7388916015625,810.0319213867188,32.38546371459961,,False,
1783642384.2442276,2026-07-09T17:13:04,206361,20260709_171258,,,,,,arming,,,,,,,,,False,0.007793191820383072,-0.02686610259115696,1.003356695175171,0.2719803750514984,0.3309646546840668,0.5036953687667847,1.0,0.0,91.0,24.0,0.024,-0.0006096333963796496,-0.002080526202917099,0.0240688044577837,-0.0052374983206391335,-0.019500847905874252,-0.0006740270182490349,-0.47441038489341736,-0.1089840680360794,-0.0063351779244840145,0.024121245369315147,-8.60631262185052e-05,3.1724339351058006e-06,0.00023349765979219228,4.069794654846191,90.0,0.0,7000.0,7000.0,7000.0,7000.0,32.766,32.766,0.279,0.38,0.025,2017.7388916015625,810.0319213867188,32.38546371459961,,False,
1783642384.254367,2026-07-09T17:13:04,206367,20260709_171258,,,,,,arming,,,,,,,,,False,-0.01916494593024254,-0.013833400793373585,0.9956774711608887,0.003180263563990593,-0.38547420501708984,0.3643520176410675,-1.0,-1.0,72.0,24.0,0.024,-0.0006096333963796496,-0.002080526202917099,0.0240688044577837,-0.0052374983206391335,-0.019500847905874252,-0.0006740270182490349,-0.47441038489341736,-0.1089840680360794,-0.0063351779244840145,0.024121245369315147,-8.60631262185052e-05,3.1724339351058006e-06,0.00023349765979219228,4.069794654846191,90.0,0.0,7000.0,7000.0,7000.0,7000.0,32.766,32.766,0.279,0.38,0.025,2017.7388916015625,810.0319213867188,32.38546371459961,,False,
1783642384.264517,2026-07-09T17:13:04,206382,20260709_171258,,,,,,arming,,,,,,,,,False,0.008278089575469494,-0.025786010548472404,1.0048096179962158,0.22444699704647064,0.15038734674453735,0.28554266691207886,0.0,1.0,85.0,24.0,0.024,-0.0005433941259980202,-0.0014382116496562958,0.024067142978310585,-0.0046243006363511086,-0.013867272064089775,-0.000643551058601588,-0.6187928318977356,-0.13048531115055084,-0.0044581773690879345,0.024067142978310585,-0.0008038089144974947,3.3162943964271108e-06,0.0002195982524426654,4.069794654846191,90.0,0.0,7000.0,7000.0,7000.0,7000.0,32.766,32.766,0.279,0.38,0.025,2017.7388916015625,810.0319213867188,32.38546371459961,,False,
1783642384.2746568,2026-07-09T17:13:04,206387,20260709_171258,,,,,,arming,,,,,,,,,False,-0.0177292563021183,-0.009153318591415882,0.9937288761138916,-0.08967340737581253,-0.7260667085647583,0.029418783262372017,0.0,0.0,91.0,24.0,0.024,-0.0005433941259980202,-0.0014382116496562958,0.024067142978310585,-0.0046243006363511086,-0.013867272064089775,-0.000643551058601588,-0.6187928318977356,-0.13048531115055084,-0.0044581773690879345,0.024067142978310585,-0.0008038089144974947,3.3162943964271108e-06,0.0002195982524426654,4.064516067504883,90.0,0.0,7000.0,7000.0,7000.0,7000.0,32.766,32.766,0.279,0.38,0.025,2017.5419921875,810.0491333007812,32.38389205932617,,False,
1783642384.2847967,2026-07-09T17:13:04,206401,20260709_171258,,,,,,arming,,,,,,,,,False,0.012251732870936394,-0.024513620883226395,1.002306580543518,0.11957718431949615,0.7463718056678772,0.3552456796169281,0.0,0.0,95.0,24.0,0.024,-0.000633221585303545,-0.0017311656847596169,0.024056844413280487,-0.004812938626855612,-0.014935162849724293,-0.0007705181487835944,-0.6206451058387756,-0.12660691142082214,-0.003564328420907259,0.024067142978310585,-0.0008038089144974947,3.3162943964271108e-06,0.0002195982524426654,4.064516067504883,90.0,0.0,7000.0,7000.0,7000.0,7000.0,32.766,32.766,0.279,0.38,0.025,2017.5419921875,810.0491333007812,32.38389205932617,,False,
1783642384.2949343,2026-07-09T17:13:04,206407,20260709_171258,,,,,,arming,,,,,,,,,False,-0.018336817622184753,-0.009571882896125317,0.9912833571434021,0.14183299243450165,-1.053894281387329,-0.36444807052612305,0.0,-3.0,74.0,24.0,0.024,-0.000633221585303545,-0.0017311656847596169,0.024056844413280487,-0.004812938626855612,-0.014935162849724293,-0.0007705181487835944,-0.6206451058387756,-0.12660691142082214,-0.003564328420907259,0.024067142978310585,-0.0008038089144974947,3.3162943964271108e-06,0.0002195982524426654,4.064516067504883,90.0,0.0,7000.0,7000.0,7000.0,7000.0,32.766,32.766,0.279,0.38,0.025,2017.5419921875,810.0491333007812,32.38389205932617,,False,
1783642384.3050785,2026-07-09T17:13:04,206421,20260709_171258,,,,,,arming,,,,,,,,,False,0.014410654082894325,-0.02419624663889408,1.0045005083084106,0.0013486737152561545,0.8316020965576172,0.2851827144622803,0.0,1.0,75.0,26.0,0.026,0.00021406426094472408,-0.0014673948753625154,0.024929217994213104,0.0015895562246441841,-0.01199923362582922,0.0035241281148046255,-0.6873629093170166,-0.23212844133377075,-0.006100214086472988,0.024067142978310585,-0.0008038089144974947,3.3162943964271108e-06,0.0002195982524426654,4.064516067504883,90.0,0.0,7000.0,7000.0,7000.0,7000.0,32.766,32.766,0.279,0.38,0.025,2017.5419921875,810.0491333007812,32.38389205932617,,False,
1783642384.3152287,2026-07-09T17:13:04,206433,20260709_171258,,,,,,arming,,,,,,,,,False,-0.019326522946357727,-0.013587238267064095,0.9931315183639526,0.2879623472690582,-0.760466456413269,-0.3040497899055481,0.0,2.0,98.0,26.0,0.026,0.00021406426094472408,-0.0014673948753625154,0.024929217994213104,0.0015895562246441841,-0.01199923362582922,0.0035241281148046255,-0.6873629093170166,-0.23212844133377075,-0.006100214086472988,0.024967947974801064,0.0035872645676136017,3.3551054912095424e-06,0.00020653354295063764,4.064516067504883,90.0,0.0,7000.0,7000.0,7000.0,7000.0,32.766,32.766,0.279,0.38,0.025,2017.5419921875,810.0491333007812,32.38389205932617,,False,
1783642384.3253694,2026-07-09T17:13:04,206441,20260709_171258,,,,,,arming,,,,,,,,,False,0.014474783092737198,-0.020681699737906456,1.0064313411712646,-0.42743584513664246,0.34663382172584534,0.3373525142669678,1.0,0.0,89.0,26.0,0.026,-0.0005386886768974364,-0.0016447615344077349,0.025004025548696518,-0.0032319817692041397,-0.012684870511293411,0.003464967478066683,-0.694633424282074,-0.14805097877979279,-0.003212637035176158,0.024967947974801064,0.0035872645676136017,3.3551054912095424e-06,0.00020653354295063764,4.064516067504883,90.0,0.0,7000.0,7000.0,7000.0,7000.0,32.766,32.766,0.279,0.39,0.027,2017.5419921875,810.0491333007812,32.38389205932617,,False,
1783642384.3355055,2026-07-09T17:13:04,206447,20260709_171258,,,,,,arming,,,,,,,,,False,-0.01988518051803112,-0.01728399284183979,0.9934327006340027,0.6285122632980347,-0.8920342326164246,-0.08798979967832565,1.0,0.0,95.0,26.0,0.026,-0.0005386886768974364,-0.0016447615344077349,0.025004025548696518,-0.0032319817692041397,-0.012684870511293411,0.003464967478066683,-0.694633424282074,-0.14805097877979279,-0.003212637035176158,0.024967947974801064,0.0035872645676136017,3.3551054912095424e-06,0.00020653354295063764,4.064516067504883,90.0,0.0,7000.0,7000.0,7000.0,7000.0,32.766,32.766,0.279,0.39,0.027,2017.5419921875,810.0491333007812,32.38389205932617,,False,
1783642384.3456407,2026-07-09T17:13:04,206461,20260709_171258,,,,,,arming,,,,,,,,,False,0.016350971534848213,-0.02182713896036148,1.0015146732330322,-0.6412596702575684,0.6455492973327637,0.06556133925914764,-1.0,0.0,95.0,26.0,0.026,-0.000513417471665889,-0.0014817503979429603,0.025484878569841385,-0.002621486783027649,-0.011241577565670013,0.005422506015747786,-0.7389705181121826,-0.15065738558769226,-0.0007724929018877447,0.024967947974801064,0.0035872645676136017,3.3551054912095424e-06,0.00020653354295063764,4.064516067504883,90.0,0.0,7000.0,7000.0,7000.0,7000.0,32.766,32.766,0.279,0.39,0.027,2017.5419921875,810.0491333007812,32.38389205932617,,False,
1783642384.355885,2026-07-09T17:13:04,206467,20260709_171258,,,,,,arming,,,,,,,,,False,-0.021712612360715866,-0.013315029442310333,0.9965770244598389,0.5961238741874695,-1.4455633163452148,-0.6497489213943481,-2.0,-1.0,73.0,26.0,0.026,-0.000513417471665889,-0.0014817503979429603,0.025484878569841385,-0.002621486783027649,-0.011241577565670013,0.005422506015747786,-0.7389705181121826,-0.15065738558769226,-0.0007724929018877447,0.024967947974801064,0.0035872645676136017,3.3551054912095424e-06,0.00020653354295063764,4.064516067504883,90.0,0.0,7000.0,7000.0,7000.0,7000.0,32.766,32.766,0.279,0.39,0.027,2017.5419921875,810.0491333007812,32.38389205932617,,False,
1783642384.3660235,2026-07-09T17:13:04,206484,20260709_171258,,,,,,arming,,,,,,,,,False,0.022994520142674446,-0.016212493181228638,1.006531834602356,-0.45555007457733154,1.3170167207717896,0.13092747330665588,1.0,1.0,85.0,26.0,0.026,-0.0004940569633617997,-0.0010361168533563614,0.025598015636205673,-0.0022013732232153416,-0.007761247921735048,0.005517994519323111,-0.800421953201294,-0.15214698016643524,-0.0012963091721758246,0.025598015636205673,0.005403181537985802,3.506020902932505e-06,0.00020536033844109625,4.064516067504883,90.0,0.0,7000.0,7000.0,7000.0,7000.0,32.766,32.766,0.279,0.39,0.027,2017.5419921875,810.0491333007812,32.38389205932617,,False,
1783642384.376172,2026-07-09T17:13:04,206487,20260709_171258,,,,,,arming,,,,,,,,,False,-0.023433445021510124,-0.017244601622223854,0.9929333925247192,0.5240210890769958,-1.46707284450531,-0.4013751745223999,0.0,0.0,92.0,26.0,0.026,-0.0004940569633617997,-0.0010361168533563614,0.025598015636205673,-0.0022013732232153416,-0.007761247921735048,0.005517994519323111,-0.800421953201294,-0.15214698016643524,-0.0012963091721758246,0.025598015636205673,0.005403181537985802,3.506020902932505e-06,0.00020536033844109625,4.064516067504883,90.0,0.0,7000.0,7000.0,7000.0,7000.0,32.766,32.766,0.279,0.39,0.027,2017.6240234375,810.0421752929688,32.373497009277344,,False,
1783642384.386312,2026-07-09T17:13:04,206501,20260709_171258,,,,,,arming,,,,,,,,,False,0.01767071709036827,-0.014826818369328976,1.0049508810043335,-0.7898169159889221,0.8431710004806519,0.4892912805080414,0.0,0.0,94.0,26.0,0.026,-0.0005297429743222892,-0.0012019254500046372,0.02571188472211361,-0.001916745794005692,-0.008314812555909157,0.00548913236707449,-0.8005158305168152,-0.14853599667549133,-0.0021016504615545273,0.025598015636205673,0.005403181537985802,3.506020902932505e-06,0.00020536033844109625,4.064516067504883,90.0,0.0,7000.0,7000.0,7000.0,7000.0,32.766,32.766,0.279,0.39,0.027,2017.6240234375,810.0421752929688,32.373497009277344,,False,
1783642384.3964508,2026-07-09T17:13:04,206507,20260709_171258,,,,,,arming,,,,,,,,,False,-0.025237012654542923,-0.02192801982164383,0.9919137358665466,0.873288631439209,-1.0939096212387085,-0.42287835478782654,1.0,0.0,76.0,26.0,0.026,-0.0005297429743222892,-0.0012019254500046372,0.02571188472211361,-0.001916745794005692,-0.008314812555909157,0.00548913236707449,-0.8005158305168152,-0.14853599667549133,-0.0021016504615545273,0.025598015636205673,0.005403181537985802,3.506020902932505e-06,0.00020536033844109625,4.064516067504883,90.0,0.0,7000.0,7000.0,7000.0,7000.0,32.766,32.766,0.279,0.39,0.027,2017.6240234375,810.0421752929688,32.373497009277344,,False,
1783642384.4065986,2026-07-09T17:13:04,206521,20260709_171258,,,,,,arming,,,,,,,,,False,0.02211018092930317,-0.017324374988675117,1.00137197971344,-0.2890986204147339,1.553287148475647,0.2876933813095093,0.0,0.0,73.0,27.0,0.027,-0.0004882297362200916,-0.001618908834643662,0.02639024145901203,-0.0015621003694832325,-0.010749980807304382,0.00811097677797079,-0.7818967700004578,-0.1576821506023407,-0.001853690017014742,0.025598015636205673,0.005403181537985802,3.506020902932505e-06,0.00020536033844109625,4.064516067504883,90.0,0.0,7000.0,7000.0,7000.0,7000.0,32.766,32.766,0.279,0.39,0.027,2017.6240234375,810.0421752929688,32.373497009277344,,False,
1783642384.4168673,2026-07-09T17:13:04,206534,20260709_171258,,,,,,arming,,,,,,,,,False,-0.02811824157834053,-0.02383141964673996,0.9917507767677307,0.6763213276863098,-1.7429252862930298,-0.4500654935836792,-2.0,0.0,96.0,27.0,0.027,-0.0004882297362200916,-0.001618908834643662,0.02639024145901203,-0.0015621003694832325,-0.010749980807304382,0.00811097677797079,-0.7818967700004578,-0.1576821506023407,-0.001853690017014742,0.02647402137517929,0.007792671676725149,3.3918042845471064e-06,0.00019491519196890295,4.064516067504883,90.0,0.0,7000.0,7000.0,7000.0,7000.0,32.766,0.298,0.281,0.39,0.027,2017.6240234375,810.0421752929688,32.373497009277344,,False,
1783642384.427006,2026-07-09T17:13:04,206545,20260709_171258,,,,,,arming,,,,,,,,,False,-0.02769056148827076,-0.0201861672103405,0.9941123723983765,0.9299401640892029,-1.7667889595031738,-0.2952721118927002,2.0,0.0,88.0,27.0,0.027,-0.00046487050713039935,-0.0014597362605854869,0.026552164927124977,-0.001453479053452611,-0.01001521572470665,0.007697008550167084,-0.808249294757843,-0.16124774515628815,-0.002716106129810214,0.02647402137517929,0.007792671676725149,3.3918042845471064e-06,0.00019491519196890295,4.064516067504883,90.0,0.0,7000.0,7000.0,7000.0,7000.0,32.766,0.298,0.281,0.39,0.027,2017.6240234375,810.0421752929688,32.373497009277344,,False,
1783642384.4371555,2026-07-09T17:13:04,206555,20260709_171258,,,,,,arming,,,,,,,,,False,0.021815450862050056,-0.013488342054188251,1.0039191246032715,-0.6749399900436401,1.6058464050292969,0.7269120812416077,0.0,0.0,88.0,27.0,0.027,-0.00046487050713039935,-0.0014597362605854869,0.026552164927124977,-0.001453479053452611,-0.01001521572470665,0.007697008550167084,-0.808249294757843,-0.16124774515628815,-0.002716106129810214,0.02647402137517929,0.007792671676725149,3.3918042845471064e-06,0.00019491519196890295,4.064516067504883,90.0,0.0,7000.0,7000.0,7000.0,7000.0,32.766,0.298,0.281,0.39,0.027,2017.6240234375,810.0421752929688,32.373497009277344,,False,
1783642384.4473288,2026-07-09T17:13:04,206565,20260709_171258,,,,,,arming,,,,,,,,,False,-0.026358263567090034,-0.019335569813847542,0.995169460773468,0.6882756948471069,-1.163809895515442,-0.31013500690460205,0.0,0.0,85.0,26.0,0.026,-0.0004923322703689337,-0.0016664983704686165,0.026443924754858017,-0.0015912994276732206,-0.01068491954356432,0.00651687802746892,-0.8085743188858032,-0.15989644825458527,-0.002143827499821782,0.02647402137517929,0.007792671676725149,3.3918042845471064e-06,0.00019491519196890295,4.064516067504883,90.0,0.0,7000.0,7000.0,7000.0,7000.0,32.766,0.298,0.281,0.39,0.027,2017.6240234375,810.0421752929688,32.373497009277344,,False,
1783642384.4574683,2026-07-09T17:13:04,206575,20260709_171258,,,,,,arming,,,,,,,,,False,0.02378271333873272,-0.013953915797173977,1.0031592845916748,-0.07277440279722214,1.3911577463150024,0.6682371497154236,-1.0,-2.0,73.0,26.0,0.026,-0.0004923322703689337,-0.0016664983704686165,0.026443924754858017,-0.0015912994276732206,-0.01068491954356432,0.00651687802746892,-0.8085743188858032,-0.15989644825458527,-0.002143827499821782,0.02647402137517929,0.007792671676725149,3.3918042845471064e-06,0.00019491519196890295,4.064516067504883,90.0,0.0,7000.0,7000.0,7000.0,7000.0,32.766,0.298,0.281,0.39,0.027,2017.6240234375,810.0421752929688,32.373497009277344,,False,
1783642384.4676054,2026-07-09T17:13:04,206585,20260709_171258,,,,,,arming,,,,,,,,,False,0.02378271333873272,-0.013953915797173977,1.0031592845916748,-0.07277440279722214,1.3911577463150024,0.6682371497154236,0.0,2.0,85.0,26.0,0.026,-0.00047725049080327153,-0.001082749804481864,0.026580780744552612,-0.001234944793395698,-0.0068377661518752575,0.0065449997782707214,-0.8634586930274963,-0.16217145323753357,-0.0006227362900972366,0.026580780744552612,0.006437706295400858,3.468192517175339e-06,0.000197677974938415,4.064516067504883,90.0,0.0,7000.0,7000.0,7000.0,7000.0,32.766,0.298,0.281,0.39,0.027,2017.59130859375,810.044677734375,32.36519241333008,,False,
1783642384.477866,2026-07-09T17:13:04,206597,20260709_171258,,,,,,arming,,,,,,,,,False,0.02013595588505268,-0.016268473118543625,1.0024478435516357,-0.5948113799095154,1.8056306838989258,0.5933997631072998,0.0,0.0,98.0,26.0,0.026,-0.00047725049080327153,-0.001082749804481864,0.026580780744552612,-0.001234944793395698,-0.0068377661518752575,0.0065449997782707214,-0.8634586930274963,-0.16217145323753357,-0.0006227362900972366,0.026580780744552612,0.006437706295400858,3.468192517175339e-06,0.000197677974938415,4.064516067504883,90.0,0.0,7000.0,7000.0,7000.0,7000.0,32.766,0.298,0.281,0.39,0.027,2017.59130859375,810.044677734375,32.36519241333008,,False,
1783642384.4880033,2026-07-09T17:13:04,206607,20260709_171258,,,,,,arming,,,,,,,,,False,-0.02395484410226345,-0.019527601078152657,0.9909432530403137,0.45291924476623535,-1.779242992401123,-0.6175740361213684,0.0,-1.0,76.0,26.0,0.026,-0.0004950223374180496,-0.0012234088499099016,0.026709524914622307,-0.0008216031128540635,-0.007454306352883577,0.0063011497259140015,-0.8592148423194885,-0.1612854152917862,0.0008889329037629068,0.026580780744552612,0.006437706295400858,3.468192517175339e-06,0.000197677974938415,4.064516067504883,90.0,0.0,7000.0,7000.0,7000.0,7000.0,32.766,0.298,0.281,0.39,0.027,2017.59130859375,810.044677734375,32.36519241333008,,False,
1783642384.498144,2026-07-09T17:13:04,206617,20260709_171258,,,,,,arming,,,,,,,,,False,0.017661305144429207,-0.013024670071899891,1.0033812522888184,-0.1982642412185669,2.3263931274414062,0.9423067569732666,0.0,1.0,72.0,26.0,0.026,-0.0004950223374180496,-0.0012234088499099016,0.026709524914622307,-0.0008216031128540635,-0.007454306352883577,0.0063011497259140015,-0.8592148423194885,-0.1612854152917862,0.0008889329037629068,0.026580780744552612,0.006437706295400858,3.468192517175339e-06,0.000197677974938415,4.064516067504883,90.0,0.0,7000.0,7000.0,7000.0,7000.0,32.766,0.298,0.281,0.39,0.027,2017.59130859375,810.044677734375,32.36519241333008,,False,
