pc_time_s,pc_time_iso,cf_time_ms,session_id,motif_id,motif_type,motif_phase,rep_index,motif_param_json,flight_phase,cmd_vx_m_s,cmd_vy_m_s,cmd_yaw_rate_deg_s,cmd_height_m,cmd_vx_raw_m_s,cmd_vy_raw_m_s,cmd_yaw_rate_raw_deg_s,cmd_height_raw_m,safety_override_active,acc_x_g,acc_y_g,acc_z_g,gyro_x_dps,gyro_y_dps,gyro_z_dps,flow_delta_x_px,flow_delta_y_px,flow_squal,zrange_mm,zrange_m,x_m,y_m,z_m,vx_m_s,vy_m_s,vz_m_s,roll_deg,pitch_deg,yaw_deg,kalman_state_z_m,kalman_state_pz,kalman_var_z,kalman_var_pz,battery_v,battery_level_pct,pm_state,motor_m1,motor_m2,motor_m3,motor_m4,range_front_m,range_back_m,range_left_m,range_right_m,range_up_m,baro_asl_m,baro_pressure_hpa,baro_temp_c,safety_flag,should_land,event
1783648475.5934787,2026-07-09T18:54:35,,20260709_185431,,,,,,ground_idle,,,,,,,,,False,,,,,,,,,,,,,,,,,,,,,,,,,,,,,,,,,,,,,,,,,False,
1783648475.6039643,2026-07-09T18:54:35,,20260709_185431,,,,,,ground_idle,,,,,,,,,False,,,,,,,,,,,,,,,,,,,,,,,,,,,,,,,,,,,,,,,,,False,
1783648475.6141202,2026-07-09T18:54:35,243929,20260709_185431,,,,,,ground_idle,,,,,,,,,False,0.011504380032420158,0.014626524411141872,1.0004956722259521,0.10056658834218979,0.4964678883552551,-0.16390356421470642,0.0,1.0,58.0,14.0,0.014,,,,,,,,,,,,,,,,,,,,,,,,,,,,,,False,
1783648475.624518,2026-07-09T18:54:35,243941,20260709_185431,,,,,,ground_idle,,,,,,,,,False,0.011348990723490715,0.014542583376169205,1.002137541770935,0.05458753928542137,0.2710030674934387,-0.14562548696994781,0.0,1.0,36.0,15.0,0.015,-0.7564330101013184,0.47886329889297485,0.01425480842590332,0.0005767501424998045,0.0014605525648221374,0.002222187351435423,0.6967741847038269,0.6192307472229004,-1.5273739099502563,,,,,,,,,,,,,,,,,,,,,False,
1783648475.6346717,2026-07-09T18:54:35,243949,20260709_185431,,,,,,ground_idle,,,,,,,,,False,0.010984997265040874,0.01169163640588522,1.002112865447998,-0.17703111469745636,-0.06352478265762329,0.21521338820457458,0.0,1.0,36.0,15.0,0.015,-0.7564330101013184,0.47886329889297485,0.01425480842590332,0.0005767501424998045,0.0014605525648221374,0.002222187351435423,0.6967741847038269,0.6192307472229004,-1.5273739099502563,,,,,,,,,,,,,,,,,,,,,False,
1783648475.644812,2026-07-09T18:54:35,243959,20260709_185431,,,,,,ground_idle,,,,,,,,,False,0.011071603745222092,0.01190473698079586,1.0025577545166016,-0.05878740921616554,0.019309742376208305,-0.027210280299186707,0.0,0.0,52.0,15.0,0.015,-0.756419837474823,0.47889721393585205,0.014301763847470284,0.0007364039774984121,0.0019131070002913475,0.002530862344428897,0.6960801482200623,0.5940715074539185,-1.5245980024337769,,,,,,,,,,,,,,,,,,,,,False,
1783648475.6549525,2026-07-09T18:54:35,243969,20260709_185431,,,,,,ground_idle,,,,,,,,,False,0.012251072563230991,0.012064780108630657,1.0010470151901245,0.002301578177139163,0.35646411776542664,-0.0944313183426857,0.0,-2.0,51.0,15.0,0.015,-0.756419837474823,0.47889721393585205,0.014301763847470284,0.0007364039774984121,0.0019131070002913475,0.002530862344428897,0.6960801482200623,0.5940715074539185,-1.5245980024337769,0.01435774564743042,0.0029328097589313984,3.792424877246958e-06,0.00019997508206870407,3.658064603805542,10.0,0.0,0.0,0.0,0.0,0.0,32.766,32.766,1.184,32.766,32.766,,,,,False,
1783648475.6651092,2026-07-09T18:54:35,243979,20260709_185431,,,,,,ground_idle,,,,,,,,,False,0.013308858498930931,0.01356527116149664,1.0004334449768066,0.2064472883939743,0.04632630571722984,0.06379584968090057,0.0,0.0,57.0,15.0,0.015,-0.7557651400566101,0.47889211773872375,0.01435774564743042,0.003597330069169402,0.0017133497167378664,0.002991702640429139,0.6926733255386353,0.5916548371315002,-1.5195494890213013,0.01435774564743042,0.0029328097589313984,3.792424877246958e-06,0.00019997508206870407,3.658064603805542,10.0,0.0,0.0,0.0,0.0,0.0,32.766,32.766,1.184,32.766,32.766,,,,,False,
1783648475.6754823,2026-07-09T18:54:35,243989,20260709_185431,,,,,,ground_idle,,,,,,,,,False,0.010621605440974236,0.01459265872836113,1.0003355741500854,-0.17632240056991577,-0.03333798423409462,0.052568450570106506,0.0,0.0,62.0,15.0,0.015,-0.7557651400566101,0.47889211773872375,0.01435774564743042,0.003597330069169402,0.0017133497167378664,0.002991702640429139,0.6926733255386353,0.5916548371315002,-1.5195494890213013,0.01435774564743042,0.0029328097589313984,3.792424877246958e-06,0.00019997508206870407,3.658064603805542,10.0,0.0,0.0,0.0,0.0,0.0,32.766,32.766,1.184,32.766,32.766,,,,,False,
1783648475.6856987,2026-07-09T18:54:35,244001,20260709_185431,,,,,,ground_idle,,,,,,,,,False,0.010906209237873554,0.01283236127346754,1.0013631582260132,0.002938218181952834,0.03263861685991287,-0.024903325363993645,2.0,2.0,33.0,15.0,0.015,-0.7556910514831543,0.47892406582832336,0.014668230898678303,0.0040369788184762,0.0018074715044349432,0.004477327689528465,0.7179993987083435,0.611931562423706,-1.5159534215927124,0.01435774564743042,0.0029328097589313984,3.792424877246958e-06,0.00019997508206870407,3.658064603805542,10.0,0.0,0.0,0.0,0.0,0.0,32.766,32.766,1.184,32.766,32.766,,,,,False,
1783648475.695988,2026-07-09T18:54:35,244009,20260709_185431,,,,,,ground_idle,,,,,,,,,False,0.010927882976830006,0.013506065122783184,1.0009361505508423,0.053118254989385605,0.16496512293815613,-0.021794553846120834,2.0,2.0,33.0,15.0,0.015,-0.7556910514831543,0.47892406582832336,0.014668230898678303,0.0040369788184762,0.0018074715044349432,0.004477327689528465,0.7179993987083435,0.611931562423706,-1.5159534215927124,0.01435774564743042,0.0029328097589313984,3.792424877246958e-06,0.00019997508206870407,3.658064603805542,10.0,0.0,0.0,0.0,0.0,0.0,32.766,32.766,1.184,32.766,32.766,,,,,False,
1783648475.7063386,2026-07-09T18:54:35,244019,20260709_185431,,,,,,ground_idle,,,,,,,,,False,0.012086891569197178,0.013512086123228073,1.0025709867477417,0.06439324468374252,-0.058723341673612595,0.010141079314053059,-1.0,0.0,52.0,15.0,0.015,-0.7564159035682678,0.47858306765556335,0.014762325212359428,0.0006285854615271091,0.0004885912640020251,0.004663482308387756,0.6832475066184998,0.6011908650398254,-1.5142194032669067,0.014810252003371716,0.004720631055533886,3.685626325022895e-06,0.00019464953220449388,3.6527860164642334,10.0,0.0,0.0,0.0,0.0,0.0,32.766,32.766,1.198,32.766,32.766,2023.059326171875,809.5591430664062,29.471702575683594,,False,
1783648475.7165968,2026-07-09T18:54:35,244031,20260709_185431,,,,,,ground_idle,,,,,,,,,False,0.014585163444280624,0.014232954010367393,1.0002347230911255,0.022291526198387146,-0.05169209837913513,-0.011672037653625011,1.0,1.0,57.0,15.0,0.015,-0.7564159035682678,0.47858306765556335,0.014762325212359428,0.0006285854615271091,0.0004885912640020251,0.004663482308387756,0.6832475066184998,0.6011908650398254,-1.5142194032669067,0.014810252003371716,0.004720631055533886,3.685626325022895e-06,0.00019464953220449388,3.6527860164642334,10.0,0.0,0.0,0.0,0.0,0.0,32.766,32.766,1.198,32.766,32.766,2023.059326171875,809.5591430664062,29.471702575683594,,False,
1783648475.7267816,2026-07-09T18:54:35,244041,20260709_185431,,,,,,ground_idle,,,,,,,,,False,0.014805460348725319,0.01410968229174614,1.0006935596466064,-0.1747259944677353,-0.17614589631557465,0.17245055735111237,1.0,0.0,32.0,16.0,0.016,-0.7564247250556946,0.47855880856513977,0.015311780385673046,0.0006604282534681261,0.00039011737680993974,0.007403907366096973,0.7088027000427246,0.6102628707885742,-1.5106706619262695,0.014810252003371716,0.004720631055533886,3.685626325022895e-06,0.00019464953220449388,3.6527860164642334,10.0,0.0,0.0,0.0,0.0,0.0,32.766,32.766,1.198,32.766,32.766,2023.059326171875,809.5591430664062,29.471702575683594,,False,
1783648475.736942,2026-07-09T18:54:35,244051,20260709_185431,,,,,,ground_idle,,,,,,,,,False,0.010801892727613449,0.015767456963658333,0.9974654316902161,-0.0393315814435482,0.3715474307537079,0.18087592720985413,-1.0,-1.0,50.0,16.0,0.016,-0.7564247250556946,0.47855880856513977,0.015311780385673046,0.0006604282534681261,0.00039011737680993974,0.007403907366096973,0.7088027000427246,0.6102628707885742,-1.5106706619262695,0.014810252003371716,0.004720631055533886,3.685626325022895e-06,0.00019464953220449388,3.6527860164642334,10.0,0.0,0.0,0.0,0.0,0.0,32.766,32.766,1.198,32.766,32.766,2023.059326171875,809.5591430664062,29.471702575683594,,False,
1783648475.7471025,2026-07-09T18:54:35,244061,20260709_185431,,,,,,ground_idle,,,,,,,,,False,0.013012097217142582,0.01344567071646452,1.0006099939346313,-0.23444704711437225,-0.18220946192741394,0.023588595911860466,-1.0,0.0,53.0,16.0,0.016,-0.7561134099960327,0.47885650396347046,0.015461603179574013,0.002687468659132719,0.002081785351037979,0.00754236476495862,0.6861925721168518,0.6007800698280334,-1.5064892768859863,0.014810252003371716,0.004720631055533886,3.685626325022895e-06,0.00019464953220449388,3.6527860164642334,10.0,0.0,0.0,0.0,0.0,0.0,32.766,32.766,1.198,32.766,32.766,2023.059326171875,809.5591430664062,29.471702575683594,,False,
1783648475.7572715,2026-07-09T18:54:35,244071,20260709_185431,,,,,,ground_idle,,,,,,,,,False,0.014467325992882252,0.01212006900459528,1.0032157897949219,0.1199331060051918,-0.04468895122408867,0.01482204906642437,0.0,0.0,52.0,16.0,0.016,-0.7561134099960327,0.47885650396347046,0.015461603179574013,0.002687468659132719,0.002081785351037979,0.00754236476495862,0.6861925721168518,0.6007800698280334,-1.5064892768859863,0.015609821304678917,0.007381517440080643,3.8012951790733496e-06,0.00019970594439655542,3.658064603805542,10.0,0.0,0.0,0.0,0.0,0.0,32.766,32.766,1.198,32.766,32.766,2023.059326171875,809.5591430664062,29.471702575683594,,False,
1783648475.7675574,2026-07-09T18:54:35,244081,20260709_185431,,,,,,ground_idle,,,,,,,,,False,0.012525489553809166,0.011925216764211655,1.0029449462890625,-0.10547542572021484,-0.03460997715592384,-0.014580409973859787,1.0,-1.0,61.0,16.0,0.016,-0.7560807466506958,0.4791736304759979,0.015609821304678917,0.002930169925093651,0.0037279680836945772,0.007457358296960592,0.6952292323112488,0.5895836353302002,-1.5018624067306519,0.015609821304678917,0.007381517440080643,3.8012951790733496e-06,0.00019970594439655542,3.658064603805542,10.0,0.0,0.0,0.0,0.0,0.0,32.766,32.766,1.198,32.766,32.766,2023.059326171875,809.5591430664062,29.471702575683594,,False,
1783648475.7777894,2026-07-09T18:54:35,244091,20260709_185431,,,,,,ground_idle,,,,,,,,,False,0.010031633079051971,0.014193148352205753,1.001813530921936,-0.008535494096577168,0.1031431034207344,0.2014111578464508,0.0,0.0,31.0,15.0,0.015,-0.7560807466506958,0.4791736304759979,0.015609821304678917,0.002930169925093651,0.0037279680836945772,0.007457358296960592,0.6952292323112488,0.5895836353302002,-1.5018624067306519,0.015609821304678917,0.007381517440080643,3.8012951790733496e-06,0.00019970594439655542,3.658064603805542,10.0,0.0,0.0,0.0,0.0,0.0,32.766,32.766,1.198,32.766,32.766,2023.059326171875,809.5591430664062,29.471702575683594,,False,
1783648475.787954,2026-07-09T18:54:35,244101,20260709_185431,,,,,,ground_idle,,,,,,,,,False,0.010397509671747684,0.013067240826785564,1.0003674030303955,0.1335868537425995,-0.011050376109778881,-0.08365385234355927,0.0,1.0,28.0,15.0,0.015,-0.7557601928710938,0.4788823127746582,0.015437820926308632,0.004666140768676996,0.0021396332886070013,0.006401240359991789,0.6934574842453003,0.6011773943901062,-1.4997813701629639,0.015609821304678917,0.007381517440080643,3.8012951790733496e-06,0.00019970594439655542,3.658064603805542,10.0,0.0,0.0,0.0,0.0,0.0,32.766,32.766,1.198,32.766,32.766,2023.059326171875,809.5591430664062,29.471702575683594,,False,
1783648475.7981057,2026-07-09T18:54:35,244111,20260709_185431,,,,,,ground_idle,,,,,,,,,False,0.012298179790377617,0.011931671760976315,1.001724362373352,-0.15123772621154785,0.09250551462173462,0.10011982172727585,-1.0,0.0,50.0,15.0,0.015,-0.7557601928710938,0.4788823127746582,0.015437820926308632,0.004666140768676996,0.0021396332886070013,0.006401240359991789,0.6934574842453003,0.6011773943901062,-1.4997813701629639,0.015609821304678917,0.007381517440080643,3.8012951790733496e-06,0.00019970594439655542,3.658064603805542,10.0,0.0,0.0,0.0,0.0,0.0,32.766,32.766,1.198,32.766,32.766,2023.059326171875,809.5591430664062,29.471702575683594,,False,
1783648475.8082736,2026-07-09T18:54:35,244121,20260709_185431,,,,,,ground_idle,,,,,,,,,False,0.0125563470646739,0.01044493168592453,1.0018991231918335,-0.130141481757164,-0.07078070938587189,0.08971409499645233,1.0,0.0,60.0,15.0,0.015,-0.7560803890228271,0.47917720675468445,0.015569813549518585,0.002821876434609294,0.003541176673024893,0.006627875380218029,0.6929659247398376,0.5997045636177063,-1.4964298009872437,0.015638092532753944,0.006747032515704632,3.687063326651696e-06,0.0001944838440977037,3.658064603805542,10.0,0.0,0.0,0.0,0.0,0.0,32.766,32.766,1.201,32.766,32.766,2023.037353515625,809.5606079101562,29.480398178100586,,False,
1783648475.8184721,2026-07-09T18:54:35,244134,20260709_185431,,,,,,ground_idle,,,,,,,,,False,0.012533094733953476,0.013840105384588242,1.0039235353469849,0.06157223880290985,-0.2311263233423233,-0.2032390534877777,0.0,0.0,55.0,15.0,0.015,-0.7560834884643555,0.4788944125175476,0.015707267448306084,0.002946565393358469,0.0018087229691445827,0.007034843321889639,0.6929659247398376,0.5997045636177063,-1.4964298009872437,0.015638092532753944,0.006747032515704632,3.687063326651696e-06,0.0001944838440977037,3.658064603805542,10.0,0.0,0.0,0.0,0.0,0.0,32.766,32.766,1.201,32.766,32.766,2023.037353515625,809.5606079101562,29.480398178100586,,False,
1783648475.8286226,2026-07-09T18:54:35,244141,20260709_185431,,,,,,ground_idle,,,,,,,,,False,0.012081270106136799,0.015618360601365566,1.0025439262390137,-0.24019087851047516,-0.06038098782300949,0.09759755432605743,0.0,1.0,33.0,17.0,0.017,-0.7560834884643555,0.4788944125175476,0.015707267448306084,0.002946565393358469,0.0018087229691445827,0.007034843321889639,0.6888353228569031,0.6113232970237732,-1.4930068254470825,0.015638092532753944,0.006747032515704632,3.687063326651696e-06,0.0001944838440977037,3.658064603805542,10.0,0.0,0.0,0.0,0.0,0.0,32.766,32.766,1.201,32.766,32.766,2023.037353515625,809.5606079101562,29.480398178100586,,False,
1783648475.8387892,2026-07-09T18:54:35,244154,20260709_185431,,,,,,ground_idle,,,,,,,,,False,0.01122130174189806,0.01326298899948597,1.0022482872009277,-0.11527179181575775,0.4726335108280182,-0.24886555969715118,-1.0,0.0,54.0,17.0,0.017,-0.7563997507095337,0.4791642129421234,0.01639583520591259,0.0015291934832930565,0.0033951608929783106,0.01035975944250822,0.6888353228569031,0.6113232970237732,-1.4930068254470825,0.015638092532753944,0.006747032515704632,3.687063326651696e-06,0.0001944838440977037,3.658064603805542,10.0,0.0,0.0,0.0,0.0,0.0,32.766,32.766,1.201,32.766,32.766,2023.037353515625,809.5606079101562,29.480398178100586,,False,
1783648475.8489656,2026-07-09T18:54:35,244161,20260709_185431,,,,,,ground_idle,,,,,,,,,False,0.013185001909732819,0.01036736462265253,1.0007116794586182,0.08707409352064133,0.5437347888946533,0.03862447664141655,-1.0,0.0,57.0,17.0,0.017,-0.7563997507095337,0.4791642129421234,0.01639583520591259,0.0015291934832930565,0.0033951608929783106,0.01035975944250822,0.6698119640350342,0.6139894723892212,-1.490460991859436,0.015638092532753944,0.006747032515704632,3.687063326651696e-06,0.0001944838440977037,3.658064603805542,10.0,0.0,0.0,0.0,0.0,0.0,32.766,32.766,1.201,32.766,32.766,2023.037353515625,809.5606079101562,29.480398178100586,,False,
1783648475.8591638,2026-07-09T18:54:35,244175,20260709_185431,,,,,,ground_idle,,,,,,,,,False,0.012653009034693241,0.012088946998119354,1.0010247230529785,-0.09479954093694687,0.05043601989746094,0.09953534603118896,2.0,0.0,52.0,17.0,0.017,-0.7564264535903931,0.4788617193698883,0.01660863310098648,0.0015723980031907558,0.001634966698475182,0.01065133698284626,0.6917839050292969,0.5901068449020386,-1.4875763654708862,0.01660863310098648,0.01061353087425232,3.6155342968413606e-06,0.0001926395489135757,3.658064603805542,10.0,0.0,0.0,0.0,0.0,0.0,32.766,32.766,1.201,32.766,32.766,2023.037353515625,809.5606079101562,29.480398178100586,,False,
1783648475.8693635,2026-07-09T18:54:35,244181,20260709_185431,,,,,,ground_idle,,,,,,,,,False,0.010802332311868668,0.01334692444652319,1.0003790855407715,-0.05612329766154289,-0.5427156090736389,-0.2562653720378876,0.0,-2.0,56.0,17.0,0.017,-0.7564264535903931,0.4788617193698883,0.01660863310098648,0.0015723980031907558,0.001634966698475182,0.01065133698284626,0.6917839050292969,0.5901068449020386,-1.4875763654708862,0.01660863310098648,0.01061353087425232,3.6155342968413606e-06,0.0001926395489135757,3.658064603805542,10.0,0.0,0.0,0.0,0.0,0.0,32.766,32.766,1.201,32.766,32.766,2023.037353515625,809.5606079101562,29.480398178100586,,False,
1783648475.8795576,2026-07-09T18:54:35,244195,20260709_185431,,,,,,ground_idle,,,,,,,,,False,0.010665961541235447,0.014446119777858257,1.0000256299972534,0.06089583784341812,0.10813995450735092,-0.011611226946115494,0.0,0.0,31.0,15.0,0.015,-0.7558391690254211,0.4788675308227539,0.016064468771219254,0.004297207109630108,0.0016119515057653189,0.006856422871351242,0.6889622807502747,0.5934770107269287,-1.4858678579330444,0.01660863310098648,0.01061353087425232,3.6155342968413606e-06,0.0001926395489135757,3.658064603805542,10.0,0.0,0.0,0.0,0.0,0.0,32.766,32.766,1.201,32.766,32.766,2023.037353515625,809.5606079101562,29.480398178100586,,False,
1783648475.88975,2026-07-09T18:54:35,244201,20260709_185431,,,,,,ground_idle,,,,,,,,,False,0.012315926142036915,0.015416428446769714,1.0020748376846313,-0.2723681628704071,0.0482504777610302,0.2500714063644409,0.0,0.0,32.0,15.0,0.015,-0.7558391690254211,0.4788675308227539,0.016064468771219254,0.004297207109630108,0.0016119515057653189,0.006856422871351242,0.6889622807502747,0.5934770107269287,-1.4858678579330444,0.01660863310098648,0.01061353087425232,3.6155342968413606e-06,0.0001926395489135757,3.658064603805542,10.0,0.0,0.0,0.0,0.0,0.0,32.766,32.766,1.201,32.766,32.766,2023.037353515625,809.5606079101562,29.480398178100586,,False,
1783648475.899914,2026-07-09T18:54:35,244214,20260709_185431,,,,,,ground_idle,,,,,,,,,False,0.010375002399086952,0.01269150897860527,1.0020352602005005,-0.09510515630245209,0.037070710211992264,-0.0984317883849144,-1.0,1.0,51.0,15.0,0.015,-0.756098210811615,0.47917675971984863,0.016204509884119034,0.002873919205740094,0.003443371504545212,0.007119721733033657,0.6889622807502747,0.5934770107269287,-1.4858678579330444,0.01660863310098648,0.01061353087425232,3.6155342968413606e-06,0.0001926395489135757,3.658064603805542,10.0,0.0,0.0,0.0,0.0,0.0,32.766,32.766,1.201,32.766,32.766,2023.037353515625,809.5606079101562,29.480398178100586,,False,
1783648475.9100752,2026-07-09T18:54:35,244221,20260709_185431,,,,,,ground_idle,,,,,,,,,False,0.013119417242705822,0.01279435958713293,1.0015721321105957,-0.007751180324703455,0.24886849522590637,0.15000522136688232,1.0,-1.0,57.0,15.0,0.015,-0.756098210811615,0.47917675971984863,0.016204509884119034,0.002873919205740094,0.003443371504545212,0.007119721733033657,0.6896320581436157,0.5963069200515747,-1.4816503524780273,0.016277164220809937,0.0072525120340287685,3.5769244277616963e-06,0.00019227202574256808,3.658064603805542,10.0,0.0,0.0,0.0,0.0,0.0,32.766,32.766,1.196,32.766,2.786,2023.0811767578125,809.5569458007812,29.4905948638916,,False,
1783648475.920297,2026-07-09T18:54:35,244235,20260709_185431,,,,,,ground_idle,,,,,,,,,False,0.0113167529925704,0.01309906505048275,1.0028624534606934,0.1190241277217865,0.33899614214897156,-0.17474611103534698,0.0,0.0,55.0,15.0,0.015,-0.7557820081710815,0.47888559103012085,0.016351306810975075,0.00432792492210865,0.0019681653939187527,0.007509379647672176,0.6883914470672607,0.592235803604126,-1.4793931245803833,0.016277164220809937,0.0072525120340287685,3.5769244277616963e-06,0.00019227202574256808,3.658064603805542,10.0,0.0,0.0,0.0,0.0,0.0,32.766,32.766,1.196,32.766,2.786,2023.0811767578125,809.5569458007812,29.4905948638916,,False,
1783648475.930506,2026-07-09T18:54:35,244241,20260709_185431,,,,,,ground_idle,,,,,,,,,False,0.009357862174510956,0.012198933400213718,1.0034778118133545,-0.21117885410785675,-0.14303220808506012,-0.10851244628429413,0.0,0.0,61.0,15.0,0.015,-0.7557820081710815,0.47888559103012085,0.016351306810975075,0.00432792492210865,0.0019681653939187527,0.007509379647672176,0.6883914470672607,0.592235803604126,-1.4793931245803833,0.016277164220809937,0.0072525120340287685,3.5769244277616963e-06,0.00019227202574256808,3.658064603805542,10.0,0.0,0.0,0.0,0.0,0.0,32.766,32.766,1.196,32.766,2.786,2023.0811767578125,809.5569458007812,29.4905948638916,,False,
1783648475.940674,2026-07-09T18:54:35,244255,20260709_185431,,,,,,ground_idle,,,,,,,,,False,0.011320666410028934,0.013437831774353981,1.0033358335494995,0.011137179099023342,0.1348021924495697,0.23387397825717926,-1.0,2.0,55.0,15.0,0.015,-0.7563618421554565,0.4792233407497406,0.01588824763894081,0.001115547027438879,0.0034840363077819347,0.005106516648083925,0.6789612770080566,0.6040987968444824,-1.4784802198410034,0.016277164220809937,0.0072525120340287685,3.5769244277616963e-06,0.00019227202574256808,3.658064603805542,10.0,0.0,0.0,0.0,0.0,0.0,32.766,32.766,1.196,32.766,2.786,2023.0811767578125,809.5569458007812,29.4905948638916,,False,
1783648475.9508638,2026-07-09T18:54:35,244266,20260709_185431,,,,,,ground_idle,,,,,,,,,False,0.011678560636937618,0.012527686543762684,1.0019468069076538,-0.08739714324474335,0.34812459349632263,-0.046664830297231674,0.0,-1.0,56.0,15.0,0.015,-0.7563618421554565,0.4792233407497406,0.01588824763894081,0.001115547027438879,0.0034840363077819347,0.005106516648083925,0.6789612770080566,0.6040987968444824,-1.4784802198410034,0.015996795147657394,0.005600059404969215,3.5594966902863234e-06,0.00019238618551753461,3.658064603805542,10.0,0.0,0.0,0.0,0.0,0.0,32.766,32.766,1.196,32.766,2.786,2023.0811767578125,809.5569458007812,29.4905948638916,,False,
1783648475.96103,2026-07-09T18:54:35,244275,20260709_185431,,,,,,ground_idle,,,,,,,,,False,0.013145387172698975,0.012975957244634628,1.001405954360962,-0.2247689664363861,-0.020176846534013748,-0.04877102002501488,0.0,0.0,57.0,15.0,0.015,-0.7560308575630188,0.4792284369468689,0.015996795147657394,0.002656150609254837,0.0033951441291719675,0.005668534431606531,0.6903766393661499,0.589253842830658,-1.4741473197937012,0.015996795147657394,0.005600059404969215,3.5594966902863234e-06,0.00019238618551753461,3.658064603805542,10.0,0.0,0.0,0.0,0.0,0.0,32.766,32.766,1.196,32.766,2.786,2023.0811767578125,809.5569458007812,29.4905948638916,,False,
1783648475.9712007,2026-07-09T18:54:35,244281,20260709_185431,,,,,,ground_idle,,,,,,,,,False,0.012837284244596958,0.013946500606834888,1.0017954111099243,-0.24078921973705292,0.12847742438316345,-0.07874526083469391,1.0,-1.0,58.0,15.0,0.015,-0.7560308575630188,0.4792284369468689,0.015996795147657394,0.002656150609254837,0.0033951441291719675,0.005668534431606531,0.6903766393661499,0.589253842830658,-1.4741473197937012,0.015996795147657394,0.005600059404969215,3.5594966902863234e-06,0.00019238618551753461,3.658064603805542,10.0,0.0,0.0,0.0,0.0,0.0,32.766,32.766,1.196,32.766,2.786,2023.0811767578125,809.5569458007812,29.4905948638916,,False,
1783648475.9814048,2026-07-09T18:54:35,244295,20260709_185431,,,,,,ground_idle,,,,,,,,,False,0.014136280864477158,0.011564889922738075,1.001098871231079,-0.23523274064064026,-0.12555241584777832,0.11878062039613724,0.0,1.0,32.0,15.0,0.015,-0.7560600638389587,0.4789007306098938,0.015655307099223137,0.002711482113227248,0.0018685187678784132,0.0036299624480307102,0.6868259906768799,0.6016114950180054,-1.471665859222412,0.015996795147657394,0.005600059404969215,3.5594966902863234e-06,0.00019238618551753461,3.658064603805542,10.0,0.0,0.0,0.0,0.0,0.0,32.766,32.766,1.196,32.766,2.786,2023.0811767578125,809.5569458007812,29.4905948638916,,False,
1783648475.9916599,2026-07-09T18:54:35,244301,20260709_185431,,,,,,ground_idle,,,,,,,,,False,0.013159762136638165,0.010781466029584408,0.9977149963378906,0.06966862827539444,0.013379614800214767,0.1602657586336136,0.0,0.0,34.0,15.0,0.015,-0.7560600638389587,0.4789007306098938,0.015655307099223137,0.002711482113227248,0.0018685187678784132,0.0036299624480307102,0.6868259906768799,0.6016114950180054,-1.471665859222412,0.015996795147657394,0.005600059404969215,3.5594966902863234e-06,0.00019238618551753461,3.658064603805542,10.0,0.0,0.0,0.0,0.0,0.0,32.766,32.766,1.196,32.766,2.786,2023.0811767578125,809.5569458007812,29.4905948638916,,False,
1783648476.0018342,2026-07-09T18:54:36,244316,20260709_185431,,,,,,ground_idle,,,,,,,,,False,0.01372059341520071,0.012437083758413792,0.9997519254684448,-0.23158897459506989,0.18170702457427979,-0.20052380859851837,0.0,0.0,55.0,15.0,0.015,-0.7559990286827087,0.47893717885017395,0.015728717669844627,0.0033592693507671356,0.0017424607649445534,0.0035843767691403627,0.684421956539154,0.5917559862136841,-1.4654960632324219,0.015764040872454643,0.003519559744745493,3.553526767063886e-06,0.00019254408834967762,3.658064603805542,10.0,0.0,0.0,0.0,0.0,0.0,32.766,32.766,1.196,32.766,2.786,2023.0811767578125,809.5569458007812,29.4905948638916,,False,
1783648476.0119977,2026-07-09T18:54:36,244321,20260709_185431,,,,,,ground_idle,,,,,,,,,False,0.011982915922999382,0.012019938789308071,1.002169132232666,-0.27689144015312195,-0.13813766837120056,0.16206707060337067,0.0,-1.0,58.0,15.0,0.015,-0.7559990286827087,0.47893717885017395,0.015728717669844627,0.0033592693507671356,0.0017424607649445534,0.0035843767691403627,0.684421956539154,0.5917559862136841,-1.4654960632324219,0.015764040872454643,0.003519559744745493,3.553526767063886e-06,0.00019254408834967762,3.658064603805542,10.0,0.0,0.0,0.0,0.0,0.0,32.766,32.766,1.205,32.766,32.766,2022.9609375,809.5676879882812,29.498960494995117,,False,
1783648476.022149,2026-07-09T18:54:36,244335,20260709_185431,,,,,,ground_idle,,,,,,,,,False,0.01097187027335167,0.012792062014341354,1.0022352933883667,0.24498112499713898,-0.47266650199890137,0.04645464941859245,-1.0,1.0,57.0,15.0,0.015,-0.7558018565177917,0.47888797521591187,0.01626632921397686,0.004388325847685337,0.0013130506267771125,0.006271719001233578,0.682748019695282,0.5959911942481995,-1.4625275135040283,0.015764040872454643,0.003519559744745493,3.553526767063886e-06,0.00019254408834967762,3.658064603805542,10.0,0.0,0.0,0.0,0.0,0.0,32.766,32.766,1.205,32.766,32.766,2022.9609375,809.5676879882812,29.498960494995117,,False,
1783648476.032366,2026-07-09T18:54:36,244341,20260709_185431,,,,,,ground_idle,,,,,,,,,False,0.011689454317092896,0.013130273669958115,1.0013991594314575,0.010691624134778976,0.39201366901397705,-0.0634957030415535,1.0,-1.0,60.0,17.0,0.017,-0.7558018565177917,0.47888797521591187,0.01626632921397686,0.004388325847685337,0.0013130506267771125,0.006271719001233578,0.682748019695282,0.5959911942481995,-1.4625275135040283,0.015764040872454643,0.003519559744745493,3.553526767063886e-06,0.00019254408834967762,3.658064603805542,10.0,0.0,0.0,0.0,0.0,0.0,32.766,32.766,1.205,32.766,32.766,2022.9609375,809.5676879882812,29.498960494995117,,False,
1783648476.0425265,2026-07-09T18:54:36,244359,20260709_185431,,,,,,ground_idle,,,,,,,,,False,0.011147201992571354,0.013839864172041416,1.001783847808838,0.1893414855003357,-0.23603560030460358,0.129934161901474,-1.0,1.0,59.0,17.0,0.017,-0.7560603618621826,0.479201078414917,0.01639692112803459,0.0029270716477185488,0.002870523603633046,0.006660656537860632,0.6839765906333923,0.6095671653747559,-1.4601147174835205,0.015764040872454643,0.003519559744745493,3.553526767063886e-06,0.00019254408834967762,3.658064603805542,10.0,0.0,0.0,0.0,0.0,0.0,32.766,32.766,1.205,32.766,32.766,2022.9609375,809.5676879882812,29.498960494995117,,False,
1783648476.052685,2026-07-09T18:54:36,244368,20260709_185431,,,,,,ground_idle,,,,,,,,,False,0.011147201992571354,0.013839864172041416,1.001783847808838,0.1893414855003357,-0.23603560030460358,0.129934161901474,1.0,0.0,58.0,17.0,0.017,-0.7560603618621826,0.479201078414917,0.01639692112803459,0.0029270716477185488,0.002870523603633046,0.006660656537860632,0.6839765906333923,0.6095671653747559,-1.4601147174835205,0.01653428003191948,0.0069342409260571,3.732051936822245e-06,0.000199535716092214,3.658064603805542,10.0,0.0,0.0,0.0,0.0,0.0,32.766,32.766,1.205,32.766,32.766,2022.9609375,809.5676879882812,29.498960494995117,,False,
1783648476.062837,2026-07-09T18:54:36,244379,20260709_185431,,,,,,ground_idle,,,,,,,,,False,0.010676480829715729,0.012296072207391262,1.002528429031372,-0.0022745279129594564,-0.08452210575342178,-0.05342395603656769,-1.0,0.0,55.0,17.0,0.017,-0.7560782432556152,0.4791707396507263,0.01653428003191948,0.002829374512657523,0.002883601002395153,0.0069991969503462315,0.6748343706130981,0.6091601252555847,-1.4559807777404785,0.01653428003191948,0.0069342409260571,3.732051936822245e-06,0.000199535716092214,3.658064603805542,10.0,0.0,0.0,0.0,0.0,0.0,32.766,32.766,1.205,32.766,32.766,2022.9609375,809.5676879882812,29.498960494995117,,False,
1783648476.0729995,2026-07-09T18:54:36,244381,20260709_185431,,,,,,ground_idle,,,,,,,,,False,0.010676480829715729,0.012296072207391262,1.002528429031372,-0.0022745279129594564,-0.08452210575342178,-0.05342395603656769,0.0,0.0,60.0,17.0,0.017,-0.7560782432556152,0.4791707396507263,0.01653428003191948,0.002829374512657523,0.002883601002395153,0.0069991969503462315,0.6748343706130981,0.6091601252555847,-1.4559807777404785,0.01653428003191948,0.0069342409260571,3.732051936822245e-06,0.000199535716092214,3.658064603805542,10.0,0.0,0.0,0.0,0.0,0.0,32.766,32.766,1.205,32.766,32.766,2022.9609375,809.5676879882812,29.498960494995117,,False,
1783648476.0831537,2026-07-09T18:54:36,244399,20260709_185431,,,,,,ground_idle,,,,,,,,,False,0.012934264726936817,0.012623315677046776,1.0022211074829102,0.1159515455365181,-0.4422995448112488,0.09554139524698257,1.0,0.0,28.0,16.0,0.016,-0.7560732364654541,0.4789031744003296,0.016389522701501846,0.0027326990384608507,0.0015656676841899753,0.005771826487034559,0.6858635544776917,0.6030316948890686,-1.4504506587982178,0.01653428003191948,0.0069342409260571,3.732051936822245e-06,0.000199535716092214,3.658064603805542,10.0,0.0,0.0,0.0,0.0,0.0,32.766,32.766,1.205,32.766,32.766,2022.9609375,809.5676879882812,29.498960494995117,,False,
1783648476.0933087,2026-07-09T18:54:36,244401,20260709_185431,,,,,,ground_idle,,,,,,,,,False,0.012934264726936817,0.012623315677046776,1.0022211074829102,0.1159515455365181,-0.4422995448112488,0.09554139524698257,0.0,-1.0,30.0,16.0,0.016,-0.7560732364654541,0.4789031744003296,0.016389522701501846,0.0027326990384608507,0.0015656676841899753,0.005771826487034559,0.6858635544776917,0.6030316948890686,-1.4504506587982178,0.01653428003191948,0.0069342409260571,3.732051936822245e-06,0.000199535716092214,3.658064603805542,10.0,0.0,0.0,0.0,0.0,0.0,32.766,32.766,1.205,32.766,32.766,2022.9609375,809.5676879882812,29.498960494995117,,False,
1783648476.1034613,2026-07-09T18:54:36,244419,20260709_185431,,,,,,ground_idle,,,,,,,,,False,0.012297172099351883,0.01534752082079649,1.0018233060836792,-0.026852980256080627,0.09560896456241608,-0.05178423225879669,-1.0,1.0,57.0,16.0,0.016,-0.7560803890228271,0.47917401790618896,0.01651267148554325,0.0028083149809390306,0.00283422670327127,0.00642207358032465,0.6864464282989502,0.6154578924179077,-1.4464892148971558,0.016578758135437965,0.0066027264110744,3.660933089122409e-06,0.0001948446879396215,3.658064603805542,10.0,0.0,0.0,0.0,0.0,0.0,32.766,32.766,1.196,32.766,32.766,2023.04833984375,809.5601196289062,29.507545471191406,,False,
1783648476.1136112,2026-07-09T18:54:36,244429,20260709_185431,,,,,,ground_idle,,,,,,,,,False,0.012527178041636944,0.012775987386703491,1.0013179779052734,0.05252598598599434,-0.022979319095611572,0.005841333884745836,1.0,0.0,56.0,16.0,0.016,-0.7560803890228271,0.47917401790618896,0.01651267148554325,0.0028083149809390306,0.00283422670327127,0.00642207358032465,0.6864464282989502,0.6154578924179077,-1.4464892148971558,0.016578758135437965,0.0066027264110744,3.660933089122409e-06,0.0001948446879396215,3.658064603805542,10.0,0.0,0.0,0.0,0.0,0.0,32.766,32.766,1.196,32.766,32.766,2023.04833984375,809.5601196289062,29.507545471191406,,False,
1783648476.1237643,2026-07-09T18:54:36,244439,20260709_185431,,,,,,ground_idle,,,,,,,,,False,0.01387151051312685,0.014235643669962883,1.002083420753479,-0.06803512573242188,-0.12046239525079727,0.1641891449689865,0.0,0.0,55.0,16.0,0.016,-0.7560756802558899,0.4789007902145386,0.016646387055516243,0.0029335978906601667,0.0018064802279695868,0.006873561535030603,0.6866126656532288,0.5931797027587891,-1.4435701370239258,0.016578758135437965,0.0066027264110744,3.660933089122409e-06,0.0001948446879396215,3.658064603805542,10.0,0.0,0.0,0.0,0.0,0.0,32.766,32.766,1.196,32.766,32.766,2023.04833984375,809.5601196289062,29.507545471191406,,False,
1783648476.1339169,2026-07-09T18:54:36,244449,20260709_185431,,,,,,ground_idle,,,,,,,,,False,0.010725034400820732,0.012491891160607338,1.002223014831543,-0.24203085899353027,0.03252584859728813,-0.012745843268930912,0.0,-2.0,62.0,16.0,0.016,-0.7560756802558899,0.4789007902145386,0.016646387055516243,0.0029335978906601667,0.0018064802279695868,0.006873561535030603,0.6866126656532288,0.5931797027587891,-1.4435701370239258,0.016578758135437965,0.0066027264110744,3.660933089122409e-06,0.0001948446879396215,3.658064603805542,10.0,0.0,0.0,0.0,0.0,0.0,32.766,32.766,1.196,32.766,32.766,2023.04833984375,809.5601196289062,29.507545471191406,,False,
1783648476.1440842,2026-07-09T18:54:36,244459,20260709_185431,,,,,,ground_idle,,,,,,,,,False,0.012070450000464916,0.012519676238298416,1.000444769859314,0.17508991062641144,-0.09616357833147049,0.3089750111103058,-1.0,2.0,57.0,16.0,0.016,-0.7560814619064331,0.4791695773601532,0.016473552212119102,0.00303651369176805,0.0032065873965620995,0.005720813758671284,0.66736900806427,0.6157888770103455,-1.440183162689209,0.016578758135437965,0.0066027264110744,3.660933089122409e-06,0.0001948446879396215,3.658064603805542,10.0,0.0,0.0,0.0,0.0,0.0,32.766,32.766,1.196,32.766,32.766,2023.04833984375,809.5601196289062,29.507545471191406,,False,
1783648476.1543117,2026-07-09T18:54:36,244469,20260709_185431,,,,,,ground_idle,,,,,,,,,False,0.01362523715943098,0.01262050960212946,1.0020544528961182,-0.041202861815690994,-0.23456622660160065,0.07733464241027832,-1.0,0.0,54.0,16.0,0.016,-0.7560814619064331,0.4791695773601532,0.016473552212119102,0.00303651369176805,0.0032065873965620995,0.005720813758671284,0.66736900806427,0.6157888770103455,-1.440183162689209,0.01659272611141205,0.005962367169559002,3.608930683185463e-06,0.00019287149189040065,3.658064603805542,10.0,0.0,0.0,0.0,0.0,0.0,32.766,32.766,1.196,32.766,32.766,2023.04833984375,809.5601196289062,29.507545471191406,,False,
1783648476.16453,2026-07-09T18:54:36,244479,20260709_185431,,,,,,ground_idle,,,,,,,,,False,0.012206574901938438,0.013512064702808857,1.0010348558425903,-0.15227463841438293,0.2213747501373291,-0.13375666737556458,1.0,0.0,57.0,16.0,0.016,-0.7561018466949463,0.47914958000183105,0.01659272611141205,0.002870231168344617,0.0028812186792492867,0.006028146017342806,0.679412305355072,0.5984823107719421,-1.4361536502838135,0.01659272611141205,0.005962367169559002,3.608930683185463e-06,0.00019287149189040065,3.658064603805542,10.0,0.0,0.0,0.0,0.0,0.0,32.766,32.766,1.196,32.766,32.766,2023.04833984375,809.5601196289062,29.507545471191406,,False,
1783648476.174739,2026-07-09T18:54:36,244489,20260709_185431,,,,,,ground_idle,,,,,,,,,False,0.007750810123980045,0.013481350615620613,1.0001705884933472,-0.09097584336996078,-0.10449782013893127,0.09530571848154068,0.0,-2.0,58.0,16.0,0.016,-0.7561018466949463,0.47914958000183105,0.01659272611141205,0.002870231168344617,0.0028812186792492867,0.006028146017342806,0.679412305355072,0.5984823107719421,-1.4361536502838135,0.01659272611141205,0.005962367169559002,3.608930683185463e-06,0.00019287149189040065,3.658064603805542,10.0,0.0,0.0,0.0,0.0,0.0,32.766,32.766,1.196,32.766,32.766,2023.04833984375,809.5601196289062,29.507545471191406,,False,
1783648476.1849077,2026-07-09T18:54:36,244499,20260709_185431,,,,,,ground_idle,,,,,,,,,False,0.013200958259403706,0.014968208968639374,1.0010281801223755,-0.031917501240968704,0.1964699625968933,-0.04855326935648918,1.0,1.0,32.0,16.0,0.016,-0.7558668851852417,0.4788649082183838,0.016419971361756325,0.004022139124572277,0.0014416156336665154,0.004788793157786131,0.6893394589424133,0.6088946461677551,-1.4333547353744507,0.01659272611141205,0.005962367169559002,3.608930683185463e-06,0.00019287149189040065,3.658064603805542,10.0,0.0,0.0,0.0,0.0,0.0,32.766,32.766,1.196,32.766,32.766,2023.04833984375,809.5601196289062,29.507545471191406,,False,
1783648476.195092,2026-07-09T18:54:36,244511,20260709_185431,,,,,,ground_idle,,,,,,,,,False,0.010825167410075665,0.013328193686902523,1.0023988485336304,-0.30571162700653076,-0.13337433338165283,0.07009931653738022,0.0,0.0,52.0,16.0,0.016,-0.7558668851852417,0.4788649082183838,0.016419971361756325,0.004022139124572277,0.0014416156336665154,0.004788793157786131,0.6893394589424133,0.6088946461677551,-1.4333547353744507,0.01659272611141205,0.005962367169559002,3.608930683185463e-06,0.00019287149189040065,3.658064603805542,10.0,0.0,0.0,0.0,0.0,0.0,32.766,32.766,1.196,32.766,32.766,2023.04833984375,809.5601196289062,29.507545471191406,,False,
1783648476.205336,2026-07-09T18:54:36,244519,20260709_185431,,,,,,ground_idle,,,,,,,,,False,0.010999615304172039,0.012690347619354725,1.0026544332504272,0.14242184162139893,0.2795615494251251,0.0037035727873444557,0.0,0.0,52.0,16.0,0.016,-0.7557886838912964,0.4788975715637207,0.016516590490937233,0.003999002743512392,0.0018662713700905442,0.004925393965095282,0.6784493327140808,0.6106870770454407,-1.429402232170105,0.016567135229706764,0.005095777101814747,3.5772347928286763e-06,0.0001922853261930868,3.658064603805542,10.0,0.0,0.0,0.0,0.0,0.0,32.766,32.766,1.197,32.766,32.766,2023.059326171875,809.5587158203125,29.519058227539062,,False,
1783648476.2155554,2026-07-09T18:54:36,244531,20260709_185431,,,,,,ground_idle,,,,,,,,,False,0.010545379482209682,0.013085861690342426,1.0008351802825928,-0.016357600688934326,-0.05967557057738304,-0.2662566006183624,0.0,0.0,56.0,16.0,0.016,-0.7557886838912964,0.4788975715637207,0.016516590490937233,0.003999002743512392,0.0018662713700905442,0.004925393965095282,0.6784493327140808,0.6106870770454407,-1.429402232170105,0.016567135229706764,0.005095777101814747,3.5772347928286763e-06,0.0001922853261930868,3.658064603805542,10.0,0.0,0.0,0.0,0.0,0.0,32.766,32.766,1.197,32.766,32.766,2023.059326171875,809.5587158203125,29.519058227539062,,False,
1783648476.2257152,2026-07-09T18:54:36,244541,20260709_185431,,,,,,ground_idle,,,,,,,,,False,0.012877191416919231,0.013386750593781471,0.9993441104888916,-0.02349839359521866,0.4645654261112213,0.029067296534776688,1.0,-1.0,58.0,15.0,0.015,-0.7557651996612549,0.4792068600654602,0.016620371490716934,0.0037640738300979137,0.003348706057295203,0.005472567863762379,0.6897929906845093,0.6023103594779968,-1.4255682229995728,0.016567135229706764,0.005095777101814747,3.5772347928286763e-06,0.0001922853261930868,3.658064603805542,10.0,0.0,0.0,0.0,0.0,0.0,32.766,32.766,1.197,32.766,32.766,2023.059326171875,809.5587158203125,29.519058227539062,,False,
1783648476.2358732,2026-07-09T18:54:36,244551,20260709_185431,,,,,,ground_idle,,,,,,,,,False,0.012525906786322594,0.015552396886050701,1.0033506155014038,-0.0023024578113108873,0.14775918424129486,-0.01045483723282814,0.0,0.0,62.0,15.0,0.015,-0.7557651996612549,0.4792068600654602,0.016620371490716934,0.0037640738300979137,0.003348706057295203,0.005472567863762379,0.6897929906845093,0.6023103594779968,-1.4255682229995728,0.016567135229706764,0.005095777101814747,3.5772347928286763e-06,0.0001922853261930868,3.658064603805542,10.0,0.0,0.0,0.0,0.0,0.0,32.766,32.766,1.197,32.766,32.766,2023.059326171875,809.5587158203125,29.519058227539062,,False,
1783648476.2460353,2026-07-09T18:54:36,244561,20260709_185431,,,,,,ground_idle,,,,,,,,,False,0.012583144940435886,0.012303797528147697,1.0038361549377441,0.16195343434810638,0.3909948766231537,0.18247157335281372,0.0,1.0,53.0,15.0,0.015,-0.7554397583007812,0.4789242148399353,0.01600215584039688,0.005160301923751831,0.0019659558311104774,0.0019788932986557484,0.6894098520278931,0.609700083732605,-1.4245085716247559,0.016567135229706764,0.005095777101814747,3.5772347928286763e-06,0.0001922853261930868,3.658064603805542,10.0,0.0,0.0,0.0,0.0,0.0,32.766,32.766,1.197,32.766,32.766,2023.059326171875,809.5587158203125,29.519058227539062,,False,
1783648476.2562206,2026-07-09T18:54:36,244569,20260709_185431,,,,,,ground_idle,,,,,,,,,False,0.013372290879487991,0.01181500032544136,1.0029903650283813,-0.06693299859762192,-0.07119201123714447,0.12480715662240982,0.0,1.0,53.0,15.0,0.015,-0.7554397583007812,0.4789242148399353,0.01600215584039688,0.005160301923751831,0.0019659558311104774,0.0019788932986557484,0.6894098520278931,0.609700083732605,-1.4245085716247559,0.016049781814217567,0.0026290160603821278,3.5609930364444153e-06,0.00019226076256018132,3.6633431911468506,10.0,0.0,0.0,0.0,0.0,0.0,32.766,32.766,1.197,32.766,32.766,2023.059326171875,809.5587158203125,29.519058227539062,,False,
1783648476.2665186,2026-07-09T18:54:36,244581,20260709_185431,,,,,,ground_idle,,,,,,,,,False,0.013663657009601593,0.012172342278063297,1.0020439624786377,-0.11285693943500519,0.07004407048225403,-0.03250628337264061,-1.0,1.0,58.0,15.0,0.015,-0.7554728984832764,0.4789063334465027,0.016049781814217567,0.004978546407073736,0.001993018900975585,0.002705930732190609,0.6806877851486206,0.6075032353401184,-1.4210739135742188,0.016049781814217567,0.0026290160603821278,3.5609930364444153e-06,0.00019226076256018132,3.6633431911468506,10.0,0.0,0.0,0.0,0.0,0.0,32.766,32.766,1.197,32.766,32.766,2023.059326171875,809.5587158203125,29.519058227539062,,False,
1783648476.2766914,2026-07-09T18:54:36,244591,20260709_185431,,,,,,ground_idle,,,,,,,,,False,0.012403896078467369,0.010763324797153473,1.0001559257507324,-0.10029385983943939,0.0633201077580452,0.11786451935768127,1.0,0.0,33.0,14.0,0.014,-0.7554728984832764,0.4789063334465027,0.016049781814217567,0.004978546407073736,0.001993018900975585,0.002705930732190609,0.6806877851486206,0.6075032353401184,-1.4210739135742188,0.016049781814217567,0.0026290160603821278,3.5609930364444153e-06,0.00019226076256018132,3.6633431911468506,10.0,0.0,0.0,0.0,0.0,0.0,32.766,32.766,1.197,32.766,32.766,2023.059326171875,809.5587158203125,29.519058227539062,,False,
1783648476.2886226,2026-07-09T18:54:36,244601,20260709_185431,,,,,,ground_idle,,,,,,,,,False,0.012107725255191326,0.013422662392258644,1.0024309158325195,0.09952923655509949,-0.16419658064842224,0.23751342296600342,0.0,1.0,33.0,14.0,0.014,-0.755779504776001,0.47890689969062805,0.015240119770169258,0.003650374012067914,0.001714112819172442,-0.0013481214409694076,0.6909005641937256,0.6201018691062927,-1.4164155721664429,0.016049781814217567,0.0026290160603821278,3.5609930364444153e-06,0.00019226076256018132,3.6633431911468506,10.0,0.0,0.0,0.0,0.0,0.0,32.766,32.766,1.197,32.766,32.766,2023.059326171875,809.5587158203125,29.519058227539062,,False,
1783648476.2988608,2026-07-09T18:54:36,244614,20260709_185431,,,,,,ground_idle,,,,,,,,,False,0.011669697239995003,0.01200258731842041,1.0036813020706177,0.23976700007915497,-0.12115951627492905,-0.12410799413919449,0.0,0.0,55.0,14.0,0.014,-0.756037175655365,0.4789220690727234,0.015216092579066753,0.0024204091168940067,0.0016445829533040524,-0.0010134681360796094,0.6909005641937256,0.6201018691062927,-1.4164155721664429,0.016049781814217567,0.0026290160603821278,3.5609930364444153e-06,0.00019226076256018132,3.6633431911468506,10.0,0.0,0.0,0.0,0.0,0.0,32.766,32.766,1.197,32.766,32.766,2023.059326171875,809.5587158203125,29.519058227539062,,False,
1783648476.309052,2026-07-09T18:54:36,244621,20260709_185431,,,,,,ground_idle,,,,,,,,,False,0.010639823041856289,0.011316509917378426,1.0013847351074219,-0.16090409457683563,0.100288026034832,0.07657822221517563,0.0,0.0,56.0,14.0,0.014,-0.756037175655365,0.4789220690727234,0.015216092579066753,0.0024204091168940067,0.0016445829533040524,-0.0010134681360796094,0.687613308429718,0.6188105344772339,-1.412378191947937,0.015207734890282154,-0.0007041467470116913,3.5543073408916825e-06,0.00019238056847825646,3.658064603805542,10.0,0.0,0.0,0.0,0.0,0.0,32.766,32.766,1.2,32.766,32.766,2023.0701904296875,809.5581665039062,29.529823303222656,,False,
1783648476.319267,2026-07-09T18:54:36,244634,20260709_185431,,,,,,ground_idle,,,,,,,,,False,0.01249298732727766,0.013968217186629772,1.0005251169204712,0.09113183617591858,0.07902863621711731,0.1520591676235199,0.0,0.0,56.0,14.0,0.014,-0.7557169198989868,0.4789300560951233,0.01473654992878437,0.003860155586153269,0.0014001118252053857,-0.002951249713078141,0.687613308429718,0.6188105344772339,-1.412378191947937,0.015207734890282154,-0.0007041467470116913,3.5543073408916825e-06,0.00019238056847825646,3.658064603805542,10.0,0.0,0.0,0.0,0.0,0.0,32.766,32.766,1.2,32.766,32.766,2023.0701904296875,809.5581665039062,29.529823303222656,,False,
1783648476.3295763,2026-07-09T18:54:36,244641,20260709_185431,,,,,,ground_idle,,,,,,,,,False,0.013129347935318947,0.013593686744570732,1.0000909566879272,-0.04536844417452812,0.116557776927948,0.11400897055864334,0.0,-1.0,58.0,14.0,0.014,-0.7557169198989868,0.4789300560951233,0.01473654992878437,0.003860155586153269,0.0014001118252053857,-0.002951249713078141,0.6869150996208191,0.6087400913238525,-1.4093462228775024,0.015207734890282154,-0.0007041467470116913,3.5543073408916825e-06,0.00019238056847825646,3.658064603805542,10.0,0.0,0.0,0.0,0.0,0.0,32.766,32.766,1.2,32.766,32.766,2023.0701904296875,809.5581665039062,29.529823303222656,,False,
1783648476.339748,2026-07-09T18:54:36,244655,20260709_185431,,,,,,ground_idle,,,,,,,,,False,0.01131192222237587,0.013316863216459751,1.0009474754333496,0.18590416014194489,0.1221797838807106,-0.08122802525758743,0.0,0.0,55.0,14.0,0.014,-0.7556357979774475,0.4789610505104065,0.014678608626127243,0.004268609918653965,0.0016959584318101406,-0.002860334003344178,0.6851308345794678,0.6042088270187378,-1.404442310333252,0.015207734890282154,-0.0007041467470116913,3.5543073408916825e-06,0.00019238056847825646,3.658064603805542,10.0,0.0,0.0,0.0,0.0,0.0,32.766,32.766,1.2,32.766,32.766,2023.0701904296875,809.5581665039062,29.529823303222656,,False,
1783648476.3498986,2026-07-09T18:54:36,244661,20260709_185431,,,,,,ground_idle,,,,,,,,,False,0.014359629712998867,0.015619895420968533,1.0009771585464478,0.11157312244176865,0.18324144184589386,-0.04745303839445114,0.0,0.0,57.0,14.0,0.014,-0.7556357979774475,0.4789610505104065,0.014678608626127243,0.004268609918653965,0.0016959584318101406,-0.002860334003344178,0.6851308345794678,0.6042088270187378,-1.404442310333252,0.015207734890282154,-0.0007041467470116913,3.5543073408916825e-06,0.00019238056847825646,3.658064603805542,10.0,0.0,0.0,0.0,0.0,0.0,32.766,32.766,1.2,32.766,32.766,2023.0701904296875,809.5581665039062,29.529823303222656,,False,
1783648476.360043,2026-07-09T18:54:36,244675,20260709_185431,,,,,,ground_idle,,,,,,,,,False,0.013607182539999485,0.01336686685681343,0.9988197088241577,0.2730253040790558,0.2703831195831299,-0.027317330241203308,0.0,0.0,57.0,14.0,0.014,-0.7555468678474426,0.47899848222732544,0.014623386785387993,0.004747603554278612,0.002114600269123912,-0.0026720778550952673,0.6839658617973328,0.6006619334220886,-1.4012187719345093,0.014623386785387993,-0.0027475773822516203,3.731890956260031e-06,0.00019939460617024451,3.658064603805542,10.0,0.0,0.0,0.0,0.0,0.0,32.766,32.766,1.2,32.766,32.766,2023.0701904296875,809.5581665039062,29.529823303222656,,False,
1783648476.3701875,2026-07-09T18:54:36,244681,20260709_185431,,,,,,ground_idle,,,,,,,,,False,0.011334779672324657,0.012650247663259506,1.0015684366226196,0.2388560175895691,0.06709719449281693,0.18471190333366394,0.0,0.0,55.0,14.0,0.014,-0.7555468678474426,0.47899848222732544,0.014623386785387993,0.004747603554278612,0.002114600269123912,-0.0026720778550952673,0.6839658617973328,0.6006619334220886,-1.4012187719345093,0.014623386785387993,-0.0027475773822516203,3.731890956260031e-06,0.00019939460617024451,3.658064603805542,10.0,0.0,0.0,0.0,0.0,0.0,32.766,32.766,1.2,32.766,32.766,2023.0701904296875,809.5581665039062,29.529823303222656,,False,
1783648476.38081,2026-07-09T18:54:36,244695,20260709_185431,,,,,,ground_idle,,,,,,,,,False,0.010882087051868439,0.012061713263392448,1.0033656358718872,-0.3374055027961731,-0.39361101388931274,-0.12155579030513763,0.0,0.0,32.0,15.0,0.015,-0.7554482817649841,0.47904109954833984,0.014752491377294064,0.005147775635123253,0.002287574578076601,-0.0016070895362645388,0.6850436329841614,0.5983696579933167,-1.3973497152328491,0.014623386785387993,-0.0027475773822516203,3.731890956260031e-06,0.00019939460617024451,3.658064603805542,10.0,0.0,0.0,0.0,0.0,0.0,32.766,32.766,1.2,32.766,32.766,2023.0701904296875,809.5581665039062,29.529823303222656,,False,
1783648476.3910384,2026-07-09T18:54:36,244701,20260709_185431,,,,,,ground_idle,,,,,,,,,False,0.012258745729923248,0.010632401332259178,1.000432014465332,-0.04906197264790535,-0.006006302312016487,-0.0981287807226181,0.0,0.0,32.0,15.0,0.015,-0.7554482817649841,0.47904109954833984,0.014752491377294064,0.005147775635123253,0.002287574578076601,-0.0016070895362645388,0.6850436329841614,0.5983696579933167,-1.3973497152328491,0.014623386785387993,-0.0027475773822516203,3.731890956260031e-06,0.00019939460617024451,3.658064603805542,10.0,0.0,0.0,0.0,0.0,0.0,32.766,32.766,1.2,32.766,32.766,2023.0701904296875,809.5581665039062,29.529823303222656,,False,
1783648476.401477,2026-07-09T18:54:36,244717,20260709_185431,,,,,,ground_idle,,,,,,,,,False,0.010212886147201061,0.010987190529704094,0.9994967579841614,-0.15200091898441315,-0.12940643727779388,-0.12323019653558731,0.0,0.0,55.0,15.0,0.015,-0.7553439140319824,0.47908687591552734,0.014725388027727604,0.005323867779225111,0.0022400652524083853,-0.0012338830856606364,0.6802067160606384,0.599882185459137,-1.394211769104004,0.014712891541421413,-0.00134695740416646,3.6603073567675892e-06,0.0001947603013832122,3.658064603805542,10.0,0.0,0.0,0.0,0.0,0.0,32.766,32.766,1.2,32.766,32.766,2023.0701904296875,809.5581665039062,29.529823303222656,,False,
1783648476.4116945,2026-07-09T18:54:36,244721,20260709_185431,,,,,,ground_idle,,,,,,,,,False,0.011122390627861023,0.012559103779494762,0.998734712600708,0.026044996455311775,0.20290449261665344,0.4897197484970093,0.0,0.0,56.0,15.0,0.015,-0.7553439140319824,0.47908687591552734,0.014725388027727604,0.005323867779225111,0.0022400652524083853,-0.0012338830856606364,0.6802067160606384,0.599882185459137,-1.394211769104004,0.014712891541421413,-0.00134695740416646,3.6603073567675892e-06,0.0001947603013832122,3.658064603805542,10.0,0.0,0.0,0.0,0.0,0.0,32.766,32.766,1.195,32.766,32.766,2023.04833984375,809.5597534179688,29.537986755371094,,False,
1783648476.4218936,2026-07-09T18:54:36,244735,20260709_185431,,,,,,ground_idle,,,,,,,,,False,0.014055587351322174,0.014079883694648743,1.0000991821289062,-0.24000179767608643,-0.40837958455085754,0.17863894999027252,0.0,0.0,57.0,15.0,0.015,-0.7552376985549927,0.4791312515735626,0.014699776656925678,0.005349579732865095,0.0022804345935583115,-0.0013575705233961344,0.678171694278717,0.597912609577179,-1.3893784284591675,0.014712891541421413,-0.00134695740416646,3.6603073567675892e-06,0.0001947603013832122,3.658064603805542,10.0,0.0,0.0,0.0,0.0,0.0,32.766,32.766,1.195,32.766,32.766,2023.04833984375,809.5597534179688,29.537986755371094,,False,
1783648476.4320858,2026-07-09T18:54:36,244741,20260709_185431,,,,,,ground_idle,,,,,,,,,False,0.013191754929721355,0.011844872497022152,1.0009262561798096,-0.48206067085266113,-0.3676883280277252,-0.17235273122787476,0.0,1.0,57.0,13.0,0.013,-0.7552376985549927,0.4791312515735626,0.014699776656925678,0.005349579732865095,0.0022804345935583115,-0.0013575705233961344,0.678171694278717,0.597912609577179,-1.3893784284591675,0.014712891541421413,-0.00134695740416646,3.6603073567675892e-06,0.0001947603013832122,3.658064603805542,10.0,0.0,0.0,0.0,0.0,0.0,32.766,32.766,1.195,32.766,32.766,2023.04833984375,809.5597534179688,29.537986755371094,,False,
1783648476.4427974,2026-07-09T18:54:36,244755,20260709_185431,,,,,,ground_idle,,,,,,,,,False,0.012326883152127266,0.010927834548056126,0.9995141625404358,-0.08580945432186127,0.503166913986206,0.10763431340456009,0.0,0.0,33.0,13.0,0.013,-0.7557204961776733,0.4791349768638611,0.013934589922428131,0.0033092107623815536,0.0022638486698269844,-0.004748173989355564,0.6746254563331604,0.6216436624526978,-1.386675477027893,0.014712891541421413,-0.00134695740416646,3.6603073567675892e-06,0.0001947603013832122,3.658064603805542,10.0,0.0,0.0,0.0,0.0,0.0,32.766,32.766,1.195,32.766,32.766,2023.04833984375,809.5597534179688,29.537986755371094,,False,
1783648476.453078,2026-07-09T18:54:36,244768,20260709_185431,,,,,,ground_idle,,,,,,,,,False,0.012481095269322395,0.010665467008948326,1.0000715255737305,-0.18963932991027832,0.204936221241951,0.04169273376464844,0.0,0.0,56.0,13.0,0.013,-0.7557204961776733,0.4791349768638611,0.013934589922428131,0.0033092107623815536,0.0022638486698269844,-0.004748173989355564,0.6746254563331604,0.6216436624526978,-1.386675477027893,0.01383944507688284,-0.00481125945225358,3.7927195535303326e-06,0.00019986795086879283,3.658064603805542,10.0,0.0,0.0,0.0,0.0,0.0,32.766,32.766,1.195,32.766,32.766,2023.04833984375,809.5597534179688,29.537986755371094,,False,
1783648476.4633226,2026-07-09T18:54:36,244779,20260709_185431,,,,,,ground_idle,,,,,,,,,False,0.0108454879373312,0.013344621285796165,1.0007352828979492,-0.1379452496767044,-0.38095760345458984,0.11075668781995773,0.0,0.0,60.0,13.0,0.013,-0.7556511759757996,0.4791790843009949,0.01383944507688284,0.00360676902346313,0.0021439900156110525,-0.004747490864247084,0.6701366901397705,0.6170671582221985,-1.38235604763031,0.01383944507688284,-0.00481125945225358,3.7927195535303326e-06,0.00019986795086879283,3.658064603805542,10.0,0.0,0.0,0.0,0.0,0.0,32.766,32.766,1.195,32.766,32.766,2023.04833984375,809.5597534179688,29.537986755371094,,False,
1783648476.4734955,2026-07-09T18:54:36,244789,20260709_185431,,,,,,ground_idle,,,,,,,,,False,0.010544471442699432,0.013569720089435577,0.9986491799354553,-0.2555718719959259,0.2142457216978073,-0.16184306144714355,0.0,0.0,58.0,13.0,0.013,-0.7556511759757996,0.4791790843009949,0.01383944507688284,0.00360676902346313,0.0021439900156110525,-0.004747490864247084,0.6701366901397705,0.6170671582221985,-1.38235604763031,0.01383944507688284,-0.00481125945225358,3.7927195535303326e-06,0.00019986795086879283,3.658064603805542,10.0,0.0,0.0,0.0,0.0,0.0,32.766,32.766,1.195,32.766,32.766,2023.04833984375,809.5597534179688,29.537986755371094,,False,
1783648476.4836526,2026-07-09T18:54:36,244799,20260709_185431,,,,,,ground_idle,,,,,,,,,False,0.009523404762148857,0.012967534363269806,0.998623788356781,0.04521616920828819,0.1282646656036377,0.21499960124492645,0.0,0.0,34.0,17.0,0.017,-0.7555916905403137,0.47921139001846313,0.015139803290367126,0.003518634242936969,0.002425789600238204,0.002685239538550377,0.6868494153022766,0.6216731667518616,-1.3768131732940674,0.01383944507688284,-0.00481125945225358,3.7927195535303326e-06,0.00019986795086879283,3.658064603805542,10.0,0.0,0.0,0.0,0.0,0.0,32.766,32.766,1.195,32.766,32.766,2023.04833984375,809.5597534179688,29.537986755371094,,False,
1783648476.4938023,2026-07-09T18:54:36,244809,20260709_185431,,,,,,ground_idle,,,,,,,,,False,0.01080130785703659,0.013483399525284767,1.0004922151565552,-0.06861549615859985,0.0537925660610199,0.0692315474152565,1.0,0.0,28.0,17.0,0.017,-0.7555916905403137,0.47921139001846313,0.015139803290367126,0.003518634242936969,0.002425789600238204,0.002685239538550377,0.6868494153022766,0.6216731667518616,-1.3768131732940674,0.01383944507688284,-0.00481125945225358,3.7927195535303326e-06,0.00019986795086879283,3.658064603805542,10.0,0.0,0.0,0.0,0.0,0.0,32.766,32.766,1.195,32.766,32.766,2023.04833984375,809.5597534179688,29.537986755371094,,False,
1783648476.5039508,2026-07-09T18:54:36,244818,20260709_185431,,,,,,ground_idle,,,,,,,,,False,0.01080130785703659,0.013483399525284767,1.0004922151565552,-0.06861549615859985,0.0537925660610199,0.0692315474152565,0.0,0.0,59.0,17.0,0.017,-0.7556357979774475,0.4786321222782135,0.015191992744803429,0.002897525206208229,0.00011914799688383937,0.002470201812684536,0.6841802597045898,0.6196271777153015,-1.3735246658325195,0.015216990374028683,0.002494165441021323,3.6857670693279942e-06,0.00019453054119367152,3.658064603805542,10.0,0.0,0.0,0.0,0.0,0.0,32.766,32.766,1.195,32.766,2.782,2023.04833984375,809.5597534179688,29.537986755371094,,False,
1783648476.514124,2026-07-09T18:54:36,244829,20260709_185431,,,,,,ground_idle,,,,,,,,,False,0.012451806105673313,0.01278708502650261,1.0035513639450073,-0.06833948194980621,-0.05773215740919113,-0.1257670670747757,0.0,0.0,58.0,17.0,0.017,-0.7556357979774475,0.4786321222782135,0.015191992744803429,0.002897525206208229,0.00011914799688383937,0.002470201812684536,0.6841802597045898,0.6196271777153015,-1.3735246658325195,0.015216990374028683,0.002494165441021323,3.6857670693279942e-06,0.00019453054119367152,3.658064603805542,10.0,0.0,0.0,0.0,0.0,0.0,32.766,32.766,1.195,32.766,2.782,2022.96630859375,809.5673217773438,29.55059814453125,,False,
1783648476.5243032,2026-07-09T18:54:36,244841,20260709_185431,,,,,,ground_idle,,,,,,,,,False,0.01304433774203062,0.014790695160627365,1.0052554607391357,-0.15266896784305573,0.06835512816905975,-0.06643285602331161,-1.0,2.0,54.0,15.0,0.015,-0.7556886672973633,0.47962498664855957,0.015150075778365135,0.0024623440112918615,0.00438575679436326,0.002282484667375684,0.652834415435791,0.6230224370956421,-1.371394157409668,0.015216990374028683,0.002494165441021323,3.6857670693279942e-06,0.00019453054119367152,3.658064603805542,10.0,0.0,0.0,0.0,0.0,0.0,32.766,32.766,1.195,32.766,2.782,2022.96630859375,809.5673217773438,29.55059814453125,,False,
1783648476.5345156,2026-07-09T18:54:36,244849,20260709_185431,,,,,,ground_idle,,,,,,,,,False,0.012253202497959137,0.012503478676080704,1.0042866468429565,0.006771031301468611,-0.01674754172563553,-0.1756671816110611,-1.0,2.0,54.0,15.0,0.015,-0.7556886672973633,0.47962498664855957,0.015150075778365135,0.0024623440112918615,0.00438575679436326,0.002282484667375684,0.652834415435791,0.6230224370956421,-1.371394157409668,0.015216990374028683,0.002494165441021323,3.6857670693279942e-06,0.00019453054119367152,3.658064603805542,10.0,0.0,0.0,0.0,0.0,0.0,32.766,32.766,1.195,32.766,2.782,2022.96630859375,809.5673217773438,29.55059814453125,,False,
1783648476.5446608,2026-07-09T18:54:36,244859,20260709_185431,,,,,,ground_idle,,,,,,,,,False,0.011562569066882133,0.013127456419169903,1.0027867555618286,-0.024533109739422798,-0.10660543292760849,-0.19111616909503937,1.0,0.0,32.0,15.0,0.015,-0.7557151317596436,0.4791131913661957,0.015204988420009613,0.002516576088964939,0.00235063792206347,0.0031459808815270662,0.6673457026481628,0.6230393052101135,-1.3682900667190552,0.015216990374028683,0.002494165441021323,3.6857670693279942e-06,0.00019453054119367152,3.658064603805542,10.0,0.0,0.0,0.0,0.0,0.0,32.766,32.766,1.195,32.766,2.782,2022.96630859375,809.5673217773438,29.55059814453125,,False,
1783648476.5548167,2026-07-09T18:54:36,244869,20260709_185431,,,,,,ground_idle,,,,,,,,,False,0.01179646048694849,0.013181602582335472,1.0027791261672974,0.03893440589308739,0.012411165051162243,-0.059644896537065506,0.0,0.0,60.0,15.0,0.015,-0.7557151317596436,0.4791131913661957,0.015204988420009613,0.002516576088964939,0.00235063792206347,0.0031459808815270662,0.6673457026481628,0.6230393052101135,-1.3682900667190552,0.015275157056748867,0.00377151882275939,3.8009216041245963e-06,0.0001995930215343833,3.658064603805542,10.0,0.0,0.0,0.0,0.0,0.0,32.766,32.766,1.195,32.766,2.782,2022.96630859375,809.5673217773438,29.55059814453125,,False,
1783648476.5649734,2026-07-09T18:54:36,244879,20260709_185431,,,,,,ground_idle,,,,,,,,,False,0.010995971038937569,0.009732122533023357,1.0013573169708252,-0.036896176636219025,0.11052104830741882,0.26739150285720825,-1.0,0.0,55.0,15.0,0.015,-0.7557185888290405,0.47959092259407043,0.015275157056748867,0.0025045715738087893,0.004310424439609051,0.0038479703944176435,0.6695749163627625,0.6259421110153198,-1.3676390647888184,0.015275157056748867,0.00377151882275939,3.8009216041245963e-06,0.0001995930215343833,3.658064603805542,10.0,0.0,0.0,0.0,0.0,0.0,32.766,32.766,1.195,32.766,2.782,2022.96630859375,809.5673217773438,29.55059814453125,,False,
1783648476.575132,2026-07-09T18:54:36,244889,20260709_185431,,,,,,ground_idle,,,,,,,,,False,0.012920878827571869,0.010578623041510582,1.000420331954956,0.06515263766050339,0.03632252290844917,0.05170537531375885,1.0,0.0,52.0,15.0,0.015,-0.7557185888290405,0.47959092259407043,0.015275157056748867,0.0025045715738087893,0.004310424439609051,0.0038479703944176435,0.6695749163627625,0.6259421110153198,-1.3676390647888184,0.015275157056748867,0.00377151882275939,3.8009216041245963e-06,0.0001995930215343833,3.658064603805542,10.0,0.0,0.0,0.0,0.0,0.0,32.766,32.766,1.195,32.766,2.782,2022.96630859375,809.5673217773438,29.55059814453125,,False,
1783648476.5853248,2026-07-09T18:54:36,244901,20260709_185431,,,,,,ground_idle,,,,,,,,,False,0.01368316262960434,0.010749747976660728,0.9987859129905701,-0.3240681290626526,0.4960285723209381,0.24392437934875488,0.0,0.0,32.0,17.0,0.017,-0.7557485103607178,0.47907987236976624,0.016062473878264427,0.0022851196117699146,0.001997391926124692,0.007977492175996304,0.6692577600479126,0.6231769919395447,-1.3648937940597534,0.015275157056748867,0.00377151882275939,3.8009216041245963e-06,0.0001995930215343833,3.658064603805542,10.0,0.0,0.0,0.0,0.0,0.0,32.766,32.766,1.195,32.766,2.782,2022.96630859375,809.5673217773438,29.55059814453125,,False,
1783648476.5954964,2026-07-09T18:54:36,244909,20260709_185431,,,,,,arming,,,,,,,,,False,0.01195607054978609,0.011165053583681583,1.0006941556930542,0.021680934354662895,0.33988529443740845,0.1505655199289322,0.0,0.0,32.0,17.0,0.017,-0.7557485103607178,0.47907987236976624,0.016062473878264427,0.0022851196117699146,0.001997391926124692,0.007977492175996304,0.6692577600479126,0.6231769919395447,-1.3648937940597534,0.015275157056748867,0.00377151882275939,3.8009216041245963e-06,0.0001995930215343833,3.658064603805542,10.0,0.0,0.0,0.0,0.0,0.0,32.766,32.766,1.195,32.766,2.782,2022.96630859375,809.5673217773438,29.55059814453125,,False,
1783648476.6056745,2026-07-09T18:54:36,244919,20260709_185431,,,,,,arming,,,,,,,,,False,0.01195607054978609,0.011165053583681583,1.0006941556930542,0.021680934354662895,0.33988529443740845,0.1505655199289322,0.0,-1.0,50.0,17.0,0.017,-0.7552759647369385,0.47906631231307983,0.01622208207845688,0.004464444238692522,0.0016110844444483519,0.007942159660160542,0.6679674983024597,0.6052342653274536,-1.3596335649490356,0.0163019560277462,0.007964183576405048,3.6865130823571235e-06,0.0001944161340361461,3.658064603805542,10.0,0.0,0.0,0.0,0.0,0.0,32.766,32.766,1.206,32.766,2.783,2023.125,809.5532836914062,29.557592391967773,,False,
1783648476.6158574,2026-07-09T18:54:36,244931,20260709_185431,,,,,,arming,,,,,,,,,False,0.01353288721293211,0.011549830436706543,1.0017729997634888,0.1006724163889885,0.17614184319972992,0.07406995445489883,1.0,0.0,63.0,17.0,0.017,-0.7552759647369385,0.47906631231307983,0.01622208207845688,0.004464444238692522,0.0016110844444483519,0.007942159660160542,0.6679674983024597,0.6052342653274536,-1.3596335649490356,0.0163019560277462,0.007964183576405048,3.6865130823571235e-06,0.0001944161340361461,3.658064603805542,10.0,0.0,0.0,0.0,0.0,0.0,32.766,32.766,1.206,32.766,2.783,2023.125,809.5532836914062,29.557592391967773,,False,
1783648476.626023,2026-07-09T18:54:36,244941,20260709_185431,,,,,,arming,,,,,,,,,False,0.01379370503127575,0.012956726364791393,1.0006920099258423,-0.11518396437168121,-0.008575656451284885,0.09196282178163528,-1.0,1.0,53.0,15.0,0.015,-0.7552983164787292,0.4785887897014618,0.016383981332182884,0.0042964015156030655,-0.00038360548205673695,0.008305304683744907,0.6660640835762024,0.6193133592605591,-1.3567125797271729,0.0163019560277462,0.007964183576405048,3.6865130823571235e-06,0.0001944161340361461,3.658064603805542,10.0,0.0,0.0,0.0,0.0,0.0,32.766,32.766,1.206,32.766,2.783,2023.125,809.5532836914062,29.557592391967773,,False,
1783648476.6361816,2026-07-09T18:54:36,244949,20260709_185431,,,,,,arming,,,,,,,,,False,0.013399840332567692,0.012374728918075562,0.9987528324127197,0.020249316468834877,-0.012351944111287594,-0.07129748910665512,-1.0,1.0,53.0,15.0,0.015,-0.7552983164787292,0.4785887897014618,0.016383981332182884,0.0042964015156030655,-0.00038360548205673695,0.008305304683744907,0.6660640835762024,0.6193133592605591,-1.3567125797271729,0.0163019560277462,0.007964183576405048,3.6865130823571235e-06,0.0001944161340361461,3.658064603805542,10.0,0.0,0.0,0.0,0.0,0.0,32.766,32.766,1.206,32.766,2.783,2023.125,809.5532836914062,29.557592391967773,,False,
1783648476.6464002,2026-07-09T18:54:36,244961,20260709_185431,,,,,,arming,,,,,,,,,False,0.010995187796652317,0.011464458890259266,0.9991601705551147,-0.15897183120250702,-0.39469367265701294,-0.00146868743468076,0.0,0.0,54.0,15.0,0.015,-0.7557576894760132,0.4790811836719513,0.015904588624835014,0.002779379952698946,0.0016308581689372659,0.005344386678189039,0.6629012227058411,0.616159200668335,-1.3518649339675903,0.0163019560277462,0.007964183576405048,3.6865130823571235e-06,0.0001944161340361461,3.658064603805542,10.0,0.0,0.0,0.0,0.0,0.0,32.766,32.766,1.206,32.766,2.783,2023.125,809.5532836914062,29.557592391967773,,False,
1783648476.6566076,2026-07-09T18:54:36,244971,20260709_185431,,,,,,arming,,,,,,,,,False,0.011946833692491055,0.011382154189050198,1.0004717111587524,0.04631784185767174,-0.029915940016508102,0.11285128444433212,-2.0,0.0,57.0,15.0,0.015,-0.7557576894760132,0.4790811836719513,0.015904588624835014,0.002779379952698946,0.0016308581689372659,0.005344386678189039,0.6629012227058411,0.616159200668335,-1.3518649339675903,0.016009623184800148,0.0051099075935781,3.6149724564893404e-06,0.00019260314002167434,3.658064603805542,10.0,0.0,7000.0,7000.0,7000.0,7000.0,32.766,32.766,1.206,32.766,2.783,2023.125,809.5532836914062,29.557592391967773,,False,
1783648476.6667678,2026-07-09T18:54:36,244981,20260709_185431,,,,,,arming,,,,,,,,,False,0.011121238581836224,0.011351389810442924,1.0027239322662354,0.2237471640110016,0.05144648253917694,-0.1939477175474167,1.0,1.0,51.0,15.0,0.015,-0.7557324767112732,0.4800300598144531,0.016009623184800148,0.0029506157152354717,0.005241852719336748,0.005199718289077282,0.6489589810371399,0.632687509059906,-1.3490760326385498,0.016009623184800148,0.0051099075935781,3.6149724564893404e-06,0.00019260314002167434,3.658064603805542,10.0,0.0,7000.0,7000.0,7000.0,7000.0,32.766,32.766,1.206,32.766,2.783,2023.125,809.5532836914062,29.557592391967773,,False,
1783648476.676935,2026-07-09T18:54:36,244991,20260709_185431,,,,,,arming,,,,,,,,,False,0.012267030775547028,0.011041348800063133,1.0017695426940918,0.020036010071635246,0.048631541430950165,0.10541023313999176,3.0,0.0,33.0,15.0,0.015,-0.7557324767112732,0.4800300598144531,0.016009623184800148,0.0029506157152354717,0.005241852719336748,0.005199718289077282,0.6489589810371399,0.632687509059906,-1.3490760326385498,0.016009623184800148,0.0051099075935781,3.6149724564893404e-06,0.00019260314002167434,3.658064603805542,10.0,0.0,7000.0,7000.0,7000.0,7000.0,32.766,32.766,1.206,32.766,2.783,2023.125,809.5532836914062,29.557592391967773,,False,
1783648476.6871104,2026-07-09T18:54:36,245001,20260709_185431,,,,,,arming,,,,,,,,,False,0.01015615463256836,0.012517588213086128,1.002212405204773,0.15211959183216095,0.027192188426852226,-0.07144848257303238,-1.0,0.0,34.0,15.0,0.015,-0.7562887072563171,0.47819381952285767,0.0156545452773571,0.0008065527072176337,-0.0022235948126763105,0.00312326499260962,0.6725267767906189,0.6337848901748657,-1.346144199371338,0.016009623184800148,0.0051099075935781,3.6149724564893404e-06,0.00019260314002167434,3.658064603805542,10.0,0.0,7000.0,7000.0,7000.0,7000.0,32.766,32.766,1.206,32.766,2.783,2023.125,809.5532836914062,29.557592391967773,,False,
1783648476.697459,2026-07-09T18:54:36,245011,20260709_185431,,,,,,arming,,,,,,,,,False,0.012055573053658009,0.01218276098370552,1.0029009580612183,-0.30254700779914856,0.6386668682098389,-0.25901517271995544,-2.0,-1.0,55.0,15.0,0.015,-0.7562887072563171,0.47819381952285767,0.0156545452773571,0.0008065527072176337,-0.0022235948126763105,0.00312326499260962,0.6725267767906189,0.6337848901748657,-1.346144199371338,0.016009623184800148,0.0051099075935781,3.6149724564893404e-06,0.00019260314002167434,3.658064603805542,10.0,0.0,7000.0,7000.0,7000.0,7000.0,32.766,32.766,1.206,32.766,2.783,2023.125,809.5532836914062,29.557592391967773,,False,
1783648476.7076695,2026-07-09T18:54:36,245021,20260709_185431,,,,,,arming,,,,,,,,,False,0.01466451957821846,0.012000557966530323,1.0028612613677979,0.022082485258579254,0.11012476682662964,0.23186367750167847,0.0,0.0,54.0,15.0,0.015,-0.7558668851852417,0.4794330894947052,0.015723522752523422,0.00237615336664021,0.002683741971850395,0.0035376837477087975,0.6490904688835144,0.6210631132125854,-1.3415530920028687,0.01576019637286663,0.0037388866767287254,3.5764699077844853e-06,0.00019225596042815596,3.658064603805542,10.0,0.0,7000.0,7000.0,7000.0,7000.0,32.766,32.766,1.186,32.766,32.766,2023.1468505859375,809.551025390625,29.56963539123535,,False,
1783648476.7178686,2026-07-09T18:54:36,245031,20260709_185431,,,,,,arming,,,,,,,,,False,0.012838901951909065,0.013576359488070011,1.0044631958007812,-0.02278805710375309,-0.04220310226082802,-0.01850828155875206,0.0,0.0,58.0,15.0,0.015,-0.7558668851852417,0.4794330894947052,0.015723522752523422,0.00237615336664021,0.002683741971850395,0.0035376837477087975,0.6490904688835144,0.6210631132125854,-1.3415530920028687,0.01576019637286663,0.0037388866767287254,3.5764699077844853e-06,0.00019225596042815596,3.658064603805542,10.0,0.0,7000.0,7000.0,7000.0,7000.0,32.766,32.766,1.186,32.766,32.766,2023.1468505859375,809.551025390625,29.56963539123535,,False,
1783648476.7280407,2026-07-09T18:54:36,245041,20260709_185431,,,,,,arming,,,,,,,,,False,0.012683660723268986,0.013141632080078125,1.001718282699585,-0.09458967298269272,-0.20445561408996582,0.1192491352558136,1.0,0.0,54.0,13.0,0.013,-0.7558661699295044,0.47903868556022644,0.014712680131196976,0.0026501864194869995,0.0010528386337682605,-0.0016466762172058225,0.6580645442008972,0.6190633177757263,-1.3372559547424316,0.01576019637286663,0.0037388866767287254,3.5764699077844853e-06,0.00019225596042815596,3.658064603805542,10.0,0.0,7000.0,7000.0,7000.0,7000.0,32.766,32.766,1.186,32.766,32.766,2023.1468505859375,809.551025390625,29.56963539123535,,False,
1783648476.7381983,2026-07-09T18:54:36,245054,20260709_185431,,,,,,arming,,,,,,,,,False,0.011290166527032852,0.013604049570858479,1.002285122871399,0.03238029032945633,0.14170944690704346,0.09035881608724594,0.0,1.0,38.0,13.0,0.013,-0.7562700510025024,0.4790467321872711,0.01468704268336296,0.001235379371792078,0.0013227497693151236,-0.001056290464475751,0.6580645442008972,0.6190633177757263,-1.3372559547424316,0.01576019637286663,0.0037388866767287254,3.5764699077844853e-06,0.00019225596042815596,3.658064603805542,10.0,0.0,7000.0,7000.0,7000.0,7000.0,32.766,32.766,1.186,32.766,32.766,2023.1468505859375,809.551025390625,29.56963539123535,,False,
1783648476.7484283,2026-07-09T18:54:36,245061,20260709_185431,,,,,,arming,,,,,,,,,False,0.01191504392772913,0.013461216352880001,1.0020774602890015,-0.0191804151982069,0.09227179735898972,-0.03840911015868187,0.0,-1.0,56.0,13.0,0.013,-0.7562700510025024,0.4790467321872711,0.01468704268336296,0.001235379371792078,0.0013227497693151236,-0.001056290464475751,0.6577272415161133,0.6210405230522156,-1.3334020376205444,0.01576019637286663,0.0037388866767287254,3.5764699077844853e-06,0.00019225596042815596,3.658064603805542,10.0,0.0,7000.0,7000.0,7000.0,7000.0,32.766,32.766,1.186,32.766,32.766,2023.1468505859375,809.551025390625,29.56963539123535,,False,
1783648476.7586472,2026-07-09T18:54:36,245074,20260709_185431,,,,,,arming,,,,,,,,,False,0.011538608931005001,0.01344483345746994,1.001447081565857,-0.2032797932624817,-0.2952609062194824,0.0020756495650857687,0.0,0.0,54.0,13.0,0.013,-0.7558630108833313,0.4790378212928772,0.014670614153146744,0.0029362060595303774,0.0014894809573888779,-0.0006129179964773357,0.6577272415161133,0.6210405230522156,-1.3334020376205444,0.014670614153146744,-0.0006620418280363083,3.7388217606348917e-06,0.00019928041729144752,3.6527860164642334,10.0,0.0,7000.0,7000.0,7000.0,7000.0,32.766,32.766,1.186,32.766,32.766,2023.1468505859375,809.551025390625,29.56963539123535,,False,
1783648476.7688217,2026-07-09T18:54:36,245081,20260709_185431,,,,,,arming,,,,,,,,,False,0.013693608343601227,0.009924350306391716,1.003353476524353,-0.03963470086455345,-0.10936790704727173,0.028485048562288284,0.0,-2.0,59.0,13.0,0.013,-0.7558630108833313,0.4790378212928772,0.014670614153146744,0.0029362060595303774,0.0014894809573888779,-0.0006129179964773357,0.6588038802146912,0.5976271033287048,-1.330883502960205,0.014670614153146744,-0.0006620418280363083,3.7388217606348917e-06,0.00019928041729144752,3.6527860164642334,10.0,0.0,7000.0,7000.0,7000.0,7000.0,32.766,32.766,1.186,32.766,32.766,2023.1468505859375,809.551025390625,29.56963539123535,,False,
1783648476.7790215,2026-07-09T18:54:36,245094,20260709_185431,,,,,,arming,,,,,,,,,False,0.009672759100794792,0.011339851655066013,1.004836916923523,0.17062920331954956,-0.3477444648742676,0.1877683848142624,0.0,3.0,26.0,14.0,0.014,-0.7562758326530457,0.479034960269928,0.014384736306965351,0.0011603196617215872,0.0014567738398909569,-0.001514962874352932,0.6588038802146912,0.5976271033287048,-1.330883502960205,0.014670614153146744,-0.0006620418280363083,3.7388217606348917e-06,0.00019928041729144752,3.6527860164642334,10.0,0.0,7000.0,7000.0,7000.0,7000.0,32.766,32.766,1.186,32.766,32.766,2023.1468505859375,809.551025390625,29.56963539123535,,False,
1783648476.7891996,2026-07-09T18:54:36,245101,20260709_185431,,,,,,arming,,,,,,,,,False,0.011191225610673428,0.01309109479188919,1.0017659664154053,-0.22071750462055206,0.6342513561248779,0.1272546350955963,0.0,0.0,31.0,14.0,0.014,-0.7562758326530457,0.479034960269928,0.014384736306965351,0.0011603196617215872,0.0014567738398909569,-0.001514962874352932,0.6556652784347534,0.6320290565490723,-1.3273371458053589,0.014670614153146744,-0.0006620418280363083,3.7388217606348917e-06,0.00019928041729144752,3.6527860164642334,10.0,0.0,7000.0,7000.0,7000.0,7000.0,32.766,32.766,1.186,32.766,32.766,2023.1468505859375,809.551025390625,29.56963539123535,,False,
1783648476.799424,2026-07-09T18:54:36,245115,20260709_185431,,,,,,arming,,,,,,,,,False,0.01271891687065363,0.00840030424296856,1.00233793258667,-0.10628875344991684,-0.3393946886062622,0.6039850115776062,0.0,-1.0,55.0,14.0,0.014,-0.7558874487876892,0.47904151678085327,0.014359571039676666,0.0027179820463061333,0.0015563956694677472,-0.001152144162915647,0.6532110571861267,0.6171730756759644,-1.328293800354004,0.014670614153146744,-0.0006620418280363083,3.7388217606348917e-06,0.00019928041729144752,3.6527860164642334,10.0,0.0,7000.0,7000.0,7000.0,7000.0,32.766,32.766,1.186,32.766,32.766,2023.1468505859375,809.551025390625,29.56963539123535,,False,
1783648476.8095834,2026-07-09T18:54:36,245121,20260709_185431,,,,,,arming,,,,,,,,,False,0.01034865714609623,0.014537066221237183,1.0023976564407349,-0.05293883755803108,-0.3864317834377289,0.4022306501865387,0.0,0.0,60.0,14.0,0.014,-0.7558874487876892,0.47904151678085327,0.014359571039676666,0.0027179820463061333,0.0015563956694677472,-0.001152144162915647,0.6532110571861267,0.6171730756759644,-1.328293800354004,0.014349069446325302,-0.0009956038556993008,3.661030632429174e-06,0.0001947724522324279,3.642228841781616,10.0,0.0,7000.0,7000.0,7000.0,7000.0,32.766,32.766,1.199,32.766,32.766,2022.99365234375,809.5647583007812,29.57921028137207,,False,
1783648476.8197446,2026-07-09T18:54:36,245135,20260709_185431,,,,,,arming,,,,,,,,,False,0.012286723591387272,0.009059800766408443,1.0031479597091675,0.07505620270967484,0.15940186381340027,0.12712737917900085,1.0,0.0,53.0,14.0,0.014,-0.7559049129486084,0.47867828607559204,0.014340671710669994,0.0026946882717311382,6.6637214331422e-05,-0.0007832073606550694,0.6621179580688477,0.6246088743209839,-1.3239784240722656,0.014349069446325302,-0.0009956038556993008,3.661030632429174e-06,0.0001947724522324279,3.642228841781616,10.0,0.0,7000.0,7000.0,7000.0,7000.0,32.766,32.766,1.199,32.766,32.766,2022.99365234375,809.5647583007812,29.57921028137207,,False,
1783648476.8299048,2026-07-09T18:54:36,245141,20260709_185431,,,,,,arming,,,,,,,,,False,0.013799276202917099,0.011379184201359749,1.0012199878692627,0.10635603219270706,0.05202467367053032,0.4246416389942169,0.0,0.0,38.0,13.0,0.013,-0.7559049129486084,0.47867828607559204,0.014340671710669994,0.0026946882717311382,6.6637214331422e-05,-0.0007832073606550694,0.6621179580688477,0.6246088743209839,-1.3239784240722656,0.014349069446325302,-0.0009956038556993008,3.661030632429174e-06,0.0001947724522324279,3.642228841781616,10.0,0.0,7000.0,7000.0,7000.0,7000.0,32.766,32.766,1.199,32.766,32.766,2022.99365234375,809.5647583007812,29.57921028137207,,False,
1783648476.8400626,2026-07-09T18:54:36,245155,20260709_185431,,,,,,arming,,,,,,,,,False,0.005310563370585442,0.015497402288019657,1.002323031425476,0.2223566323518753,0.6586467027664185,1.2086950540542603,0.0,0.0,44.0,13.0,0.013,-0.7558447122573853,0.47868531942367554,0.013739962130784988,0.0029121371917426586,0.00016599035006947815,-0.003391168313100934,0.6621950268745422,0.601157009601593,-1.3189802169799805,0.014349069446325302,-0.0009956038556993008,3.661030632429174e-06,0.0001947724522324279,3.642228841781616,10.0,0.0,7000.0,7000.0,7000.0,7000.0,32.766,32.766,1.199,32.766,32.766,2022.99365234375,809.5647583007812,29.57921028137207,,False,
1783648476.8502276,2026-07-09T18:54:36,245166,20260709_185431,,,,,,arming,,,,,,,,,False,0.014285399578511715,0.009819096885621548,1.0031700134277344,-0.3411109745502472,0.3943053185939789,-0.0465838797390461,0.0,-2.0,55.0,13.0,0.013,-0.7558447122573853,0.47868531942367554,0.013739962130784988,0.0029121371917426586,0.00016599035006947815,-0.003391168313100934,0.6621950268745422,0.601157009601593,-1.3189802169799805,0.013679507188498974,-0.0027625795919448137,3.6075853131478652e-06,0.00019293026707600802,3.642228841781616,10.0,0.0,7000.0,7000.0,7000.0,7000.0,32.766,32.766,1.199,32.766,32.766,2022.99365234375,809.5647583007812,29.57921028137207,,False,
1783648476.8605828,2026-07-09T18:54:36,245175,20260709_185431,,,,,,arming,,,,,,,,,False,0.012055746279656887,0.01044243574142456,1.0041463375091553,-0.22067971527576447,-0.5952677130699158,-0.015353021211922169,0.0,1.0,51.0,13.0,0.013,-0.7554722428321838,0.4786779582500458,0.013679507188498974,0.004168231040239334,0.00046135333832353354,-0.00271261646412313,0.6594194769859314,0.6049280762672424,-1.3128525018692017,0.013679507188498974,-0.0027625795919448137,3.6075853131478652e-06,0.00019293026707600802,3.647507429122925,10.0,0.0,7000.0,7000.0,7000.0,7000.0,32.766,0.35000000000000003,1.199,32.766,32.766,2022.99365234375,809.5647583007812,29.57921028137207,,False,
1783648476.8707802,2026-07-09T18:54:36,245181,20260709_185431,,,,,,arming,,,,,,,,,False,0.011159727349877357,0.01573917269706726,1.000981092453003,0.3510220944881439,0.13407613337039948,0.042143214493989944,0.0,0.0,56.0,13.0,0.013,-0.7554722428321838,0.4786779582500458,0.013679507188498974,0.004168231040239334,0.00046135333832353354,-0.00271261646412313,0.6594194769859314,0.6049280762672424,-1.3128525018692017,0.013679507188498974,-0.0027625795919448137,3.6075853131478652e-06,0.00019293026707600802,3.647507429122925,10.0,0.0,7000.0,7000.0,7000.0,7000.0,32.766,0.35000000000000003,1.199,32.766,32.766,2022.99365234375,809.5647583007812,29.57921028137207,,False,
1783648476.8809412,2026-07-09T18:54:36,245195,20260709_185431,,,,,,arming,,,,,,,,,False,0.018494881689548492,0.01021523680537939,1.0040185451507568,-0.08605370670557022,0.4361877143383026,-0.349334716796875,0.0,0.0,33.0,15.0,0.015,-0.7553902864456177,0.47868087887763977,0.014200408011674881,0.0044539086520671844,0.0005805956898257136,0.0007500235224142671,0.6348547339439392,0.6320818662643433,-1.3121742010116577,0.013679507188498974,-0.0027625795919448137,3.6075853131478652e-06,0.00019293026707600802,3.647507429122925,10.0,0.0,7000.0,7000.0,7000.0,7000.0,32.766,0.35000000000000003,1.199,32.766,32.766,2022.99365234375,809.5647583007812,29.57921028137207,,False,
1783648476.8911026,2026-07-09T18:54:36,245201,20260709_185431,,,,,,arming,,,,,,,,,False,0.00998685322701931,0.015331610105931759,0.9992043375968933,0.07367061078548431,0.14606963098049164,0.3682481348514557,-2.0,2.0,29.0,15.0,0.015,-0.7553902864456177,0.47868087887763977,0.014200408011674881,0.0044539086520671844,0.0005805956898257136,0.0007500235224142671,0.6348547339439392,0.6320818662643433,-1.3121742010116577,0.013679507188498974,-0.0027625795919448137,3.6075853131478652e-06,0.00019293026707600802,3.647507429122925,10.0,0.0,7000.0,7000.0,7000.0,7000.0,32.766,0.35000000000000003,1.199,32.766,32.766,2022.99365234375,809.5647583007812,29.57921028137207,,False,
1783648476.9012747,2026-07-09T18:54:36,245216,20260709_185431,,,,,,arming,,,,,,,,,False,0.011293319053947926,0.009499847888946533,0.999603271484375,-0.08322200179100037,0.3387913107872009,0.3486355245113373,1.0,-1.0,56.0,15.0,0.015,-0.7558269500732422,0.47906967997550964,0.014223148114979267,0.0028495769947767258,0.002255708212032914,0.0009945103665813804,0.6139262914657593,0.6168407797813416,-1.3119213581085205,0.014232590794563293,0.0010373896220698953,3.576320523279719e-06,0.0001923928502947092,3.647507429122925,10.0,0.0,7000.0,7000.0,7000.0,7000.0,32.766,0.35000000000000003,1.199,32.766,32.766,2022.99365234375,809.5647583007812,29.57921028137207,,False,
1783648476.9114504,2026-07-09T18:54:36,245221,20260709_185431,,,,,,arming,,,,,,,,,False,0.011842581443488598,0.011020063422620296,0.996367871761322,0.15339839458465576,0.30094707012176514,0.18088078498840332,-3.0,0.0,53.0,15.0,0.015,-0.7558269500732422,0.47906967997550964,0.014223148114979267,0.0028495769947767258,0.002255708212032914,0.0009945103665813804,0.6139262914657593,0.6168407797813416,-1.3119213581085205,0.014232590794563293,0.0010373896220698953,3.576320523279719e-06,0.0001923928502947092,3.642228841781616,10.0,0.0,7000.0,7000.0,7000.0,7000.0,32.766,0.35000000000000003,1.193,32.766,32.766,2023.04833984375,809.56005859375,29.588655471801758,,False,
1783648476.9216495,2026-07-09T18:54:36,245235,20260709_185431,,,,,,arming,,,,,,,,,False,0.008519689552485943,0.010296864435076714,1.0009039640426636,-0.06382519751787186,0.11680177599191666,0.43174365162849426,2.0,0.0,56.0,15.0,0.015,-0.7558450698852539,0.47940266132354736,0.014248930849134922,0.002966004190966487,0.0036134347319602966,0.0010517343180254102,0.636718213558197,0.6113712191581726,-1.3094403743743896,0.014232590794563293,0.0010373896220698953,3.576320523279719e-06,0.0001923928502947092,3.642228841781616,10.0,0.0,7000.0,7000.0,7000.0,7000.0,32.766,0.35000000000000003,1.193,32.766,32.766,2023.04833984375,809.56005859375,29.588655471801758,,False,
1783648476.9318068,2026-07-09T18:54:36,245241,20260709_185431,,,,,,arming,,,,,,,,,False,0.011794595047831535,0.011783496476709843,1.0014019012451172,0.7982196807861328,-0.7111051082611084,0.35377222299575806,2.0,0.0,36.0,18.0,0.018,-0.7558450698852539,0.47940266132354736,0.014248930849134922,0.002966004190966487,0.0036134347319602966,0.0010517343180254102,0.636718213558197,0.6113712191581726,-1.3094403743743896,0.014232590794563293,0.0010373896220698953,3.576320523279719e-06,0.0001923928502947092,3.642228841781616,10.0,0.0,7000.0,7000.0,7000.0,7000.0,32.766,0.35000000000000003,1.193,32.766,32.766,2023.04833984375,809.56005859375,29.588655471801758,,False,
1783648476.9420104,2026-07-09T18:54:36,245255,20260709_185431,,,,,,arming,,,,,,,,,False,0.016915995627641678,0.015255788341164589,1.0040022134780884,-0.7481778264045715,0.5367091298103333,0.790125846862793,0.0,0.0,44.0,18.0,0.018,0.0,0.0,0.0,0.0,0.0,0.0,0.0,0.0,0.0,0.014232590794563293,0.0010373896220698953,3.576320523279719e-06,0.0001923928502947092,3.642228841781616,10.0,0.0,7000.0,7000.0,7000.0,7000.0,32.766,0.35000000000000003,1.193,32.766,32.766,2023.04833984375,809.56005859375,29.588655471801758,,False,
1783648476.9523587,2026-07-09T18:54:36,245269,20260709_185431,,,,,,arming,,,,,,,,,False,0.013956200331449509,0.014695582911372185,0.9945749044418335,-0.377811461687088,0.32581955194473267,0.6330467462539673,0.0,0.0,52.0,18.0,0.018,0.0,0.0,0.0,0.0,0.0,0.0,0.0,0.0,0.0,6.18369085714221e-06,0.0007278200355358422,1.0,0.00012100000458303839,3.6527860164642334,10.0,0.0,7000.0,7000.0,7000.0,7000.0,32.766,32.766,1.193,32.766,32.766,2023.04833984375,809.56005859375,29.588655471801758,,False,
1783648476.9625704,2026-07-09T18:54:36,245275,20260709_185431,,,,,,arming,,,,,,,,,False,0.013956200331449509,0.014695582911372185,0.9945749044418335,-0.377811461687088,0.32581955194473267,0.6330467462539673,0.0,0.0,53.0,18.0,0.018,2.543931441323366e-05,2.317459075129591e-05,6.18369085714221e-06,0.0023485864512622356,0.0020949654281139374,0.0007277934346348047,-0.012473000213503838,0.003831305308267474,0.0037733728531748056,6.18369085714221e-06,0.0007278200355358422,1.0,0.00012100000458303839,3.6527860164642334,10.0,0.0,7000.0,7000.0,7000.0,7000.0,32.766,32.766,1.193,32.766,32.766,2023.04833984375,809.56005859375,29.588655471801758,,False,
1783648476.9727676,2026-07-09T18:54:36,245289,20260709_185431,,,,,,arming,,,,,,,,,False,0.011013655923306942,0.01507130078971386,0.9987132549285889,0.4450434744358063,-0.19323298335075378,0.5731552243232727,-1.0,0.0,57.0,18.0,0.018,2.543931441323366e-05,2.317459075129591e-05,6.18369085714221e-06,0.0023485864512622356,0.0020949654281139374,0.0007277934346348047,-0.012473000213503838,0.003831305308267474,0.0037733728531748056,6.18369085714221e-06,0.0007278200355358422,1.0,0.00012100000458303839,3.6527860164642334,10.0,0.0,7000.0,7000.0,7000.0,7000.0,32.766,32.766,1.193,32.766,32.766,2023.04833984375,809.56005859375,29.588655471801758,,False,
1783648476.9829366,2026-07-09T18:54:36,245299,20260709_185431,,,,,,arming,,,,,,,,,False,0.013628628104925156,0.015011921525001526,0.998702347278595,-1.1429078578948975,1.193534255027771,0.3844735026359558,0.0,0.0,30.0,17.0,0.017,9.555129508953542e-05,0.00013819745799992234,0.016998494043946266,0.004673582501709461,0.005583419464528561,0.0008369268616661429,-0.0143847381696105,0.004864327143877745,0.005487682763487101,6.18369085714221e-06,0.0007278200355358422,1.0,0.00012100000458303839,3.6527860164642334,10.0,0.0,7000.0,7000.0,7000.0,7000.0,32.766,32.766,1.193,32.766,32.766,2023.04833984375,809.56005859375,29.588655471801758,,False,
1783648476.9931178,2026-07-09T18:54:36,245309,20260709_185431,,,,,,arming,,,,,,,,,False,0.010941337794065475,0.006905244197696447,1.0053412914276123,0.9133930206298828,-0.6635096073150635,0.5230810642242432,0.0,0.0,34.0,17.0,0.017,9.555129508953542e-05,0.00013819745799992234,0.016998494043946266,0.004673582501709461,0.005583419464528561,0.0008369268616661429,-0.0143847381696105,0.004864327143877745,0.005487682763487101,6.18369085714221e-06,0.0007278200355358422,1.0,0.00012100000458303839,3.6527860164642334,10.0,0.0,7000.0,7000.0,7000.0,7000.0,32.766,32.766,1.193,32.766,32.766,2023.04833984375,809.56005859375,29.588655471801758,,False,
1783648477.0033002,2026-07-09T18:54:37,245319,20260709_185431,,,,,,arming,,,,,,,,,False,0.010941337794065475,0.006905244197696447,1.0053412914276123,0.9133930206298828,-0.6635096073150635,0.5230810642242432,0.0,0.0,48.0,17.0,0.017,0.0002131391956936568,0.00027881836285814643,0.01701696589589119,0.007121898699551821,0.008426547050476074,0.0009207441471517086,-0.019537396728992462,-0.00022225920110940933,0.00806701835244894,0.01702885515987873,0.0014586468460038304,6.397916422429262e-06,0.00017099964316003025,3.647507429122925,10.0,0.0,7000.0,7000.0,7000.0,7000.0,32.766,32.766,1.191,32.766,2.793,2023.168701171875,809.5494384765625,29.597021102905273,,False,
1783648477.013464,2026-07-09T18:54:37,245329,20260709_185431,,,,,,arming,,,,,,,,,False,0.013766437768936157,0.0070570530369877815,1.0063161849975586,0.13650502264499664,-0.6687562465667725,0.6144188046455383,0.0,0.0,52.0,17.0,0.017,0.0002131391956936568,0.00027881836285814643,0.01701696589589119,0.007121898699551821,0.008426547050476074,0.0009207441471517086,-0.019537396728992462,-0.00022225920110940933,0.00806701835244894,0.01702885515987873,0.0014586468460038304,6.397916422429262e-06,0.00017099964316003025,3.647507429122925,10.0,0.0,7000.0,7000.0,7000.0,7000.0,32.766,32.766,1.191,32.766,2.793,2023.168701171875,809.5494384765625,29.597021102905273,,False,
1783648477.023617,2026-07-09T18:54:37,245339,20260709_185431,,,,,,arming,,,,,,,,,False,0.016098979860544205,0.012796629220247269,0.9952451586723328,-0.0053698294796049595,0.1576559990644455,0.18669164180755615,0.0,0.0,53.0,17.0,0.017,0.00020411660079844296,0.0005156022380106151,0.017534034326672554,0.006737993098795414,0.011829146184027195,0.0016250270418822765,-0.03734184429049492,0.07420424371957779,0.007576752919703722,0.01702885515987873,0.0014586468460038304,6.397916422429262e-06,0.00017099964316003025,3.647507429122925,10.0,0.0,7000.0,7000.0,7000.0,7000.0,32.766,32.766,1.191,32.766,2.793,2023.168701171875,809.5494384765625,29.597021102905273,,False,
1783648477.033914,2026-07-09T18:54:37,245349,20260709_185431,,,,,,arming,,,,,,,,,False,0.007778099272400141,0.014384773559868336,0.9993447065353394,-0.4406374990940094,0.006392966490238905,0.10332965850830078,-1.0,1.0,29.0,18.0,0.018,0.00020411660079844296,0.0005156022380106151,0.017534034326672554,0.006737993098795414,0.011829146184027195,0.0016250270418822765,-0.03734184429049492,0.07420424371957779,0.007576752919703722,0.01702885515987873,0.0014586468460038304,6.397916422429262e-06,0.00017099964316003025,3.647507429122925,10.0,0.0,7000.0,7000.0,7000.0,7000.0,32.766,32.766,1.191,32.766,2.793,2023.168701171875,809.5494384765625,29.597021102905273,,False,
1783648477.0440729,2026-07-09T18:54:37,245359,20260709_185431,,,,,,arming,,,,,,,,,False,0.013811287470161915,0.009650292806327343,0.9957250952720642,0.1594078540802002,-0.5668154358863831,0.4711678922176361,2.0,0.0,50.0,18.0,0.018,0.0003159180632792413,0.00040395912947133183,0.01758335530757904,0.008459072560071945,0.008608396165072918,0.00180632877163589,0.008551604114472866,0.06556385010480881,0.008114777505397797,0.01702885515987873,0.0014586468460038304,6.397916422429262e-06,0.00017099964316003025,3.647507429122925,10.0,0.0,7000.0,7000.0,7000.0,7000.0,32.766,32.766,1.191,32.766,2.793,2023.168701171875,809.5494384765625,29.597021102905273,,False,
1783648477.054229,2026-07-09T18:54:37,245369,20260709_185431,,,,,,arming,,,,,,,,,False,0.010477510280907154,0.01907571777701378,0.999718964099884,-0.17306086421012878,0.7487667798995972,0.06746656447649002,-2.0,-1.0,50.0,18.0,0.018,0.0003159180632792413,0.00040395912947133183,0.01758335530757904,0.008459072560071945,0.008608396165072918,0.00180632877163589,0.008551604114472866,0.06556385010480881,0.008114777505397797,0.017611268907785416,0.001426246832124889,3.7592144508380443e-06,0.00021762876713182777,3.6527860164642334,10.0,0.0,7000.0,7000.0,7000.0,7000.0,32.766,32.766,1.191,32.766,2.793,2023.168701171875,809.5494384765625,29.597021102905273,,False,
1783648477.0645142,2026-07-09T18:54:37,245381,20260709_185431,,,,,,arming,,,,,,,,,False,0.016673201695084572,0.009477289393544197,1.008226990699768,0.207062765955925,-0.016300762072205544,0.5697358846664429,1.0,0.0,55.0,18.0,0.018,0.0005953237996436656,0.0008732080459594727,0.017611268907785416,0.011642922647297382,0.01420082338154316,0.0014415077166631818,0.10115784406661987,0.09956097602844238,0.01035387348383665,0.017611268907785416,0.001426246832124889,3.7592144508380443e-06,0.00021762876713182777,3.6527860164642334,10.0,0.0,7000.0,7000.0,7000.0,7000.0,32.766,32.766,1.191,32.766,2.793,2023.168701171875,809.5494384765625,29.597021102905273,,False,
1783648477.0746708,2026-07-09T18:54:37,245391,20260709_185431,,,,,,arming,,,,,,,,,False,0.014066598378121853,0.013323760591447353,1.001063585281372,-0.12712828814983368,-0.1068836897611618,0.5513439178466797,0.0,1.0,31.0,16.0,0.016,0.0005953237996436656,0.0008732080459594727,0.017611268907785416,0.011642922647297382,0.01420082338154316,0.0014415077166631818,0.10115784406661987,0.09956097602844238,0.01035387348383665,0.017611268907785416,0.001426246832124889,3.7592144508380443e-06,0.00021762876713182777,3.6527860164642334,10.0,0.0,7000.0,7000.0,7000.0,7000.0,32.766,32.766,1.191,32.766,2.793,2023.168701171875,809.5494384765625,29.597021102905273,,False,
1783648477.0848272,2026-07-09T18:54:37,245399,20260709_185431,,,,,,arming,,,,,,,,,False,0.008613910526037216,0.010252700187265873,0.9976511597633362,-0.10119011998176575,-0.8006294369697571,0.2034764140844345,0.0,1.0,31.0,16.0,0.016,0.000435527297668159,0.0007194680511020124,0.016986936330795288,0.009248927235603333,0.011570763774216175,-0.0004534138133749366,0.13277994096279144,0.1807166486978531,0.009638700634241104,0.017611268907785416,0.001426246832124889,3.7592144508380443e-06,0.00021762876713182777,3.6527860164642334,10.0,0.0,7000.0,7000.0,7000.0,7000.0,32.766,32.766,1.191,32.766,2.793,2023.168701171875,809.5494384765625,29.597021102905273,,False,
1783648477.0949883,2026-07-09T18:54:37,245411,20260709_185431,,,,,,arming,,,,,,,,,False,0.01470610685646534,0.00807860679924488,0.9979366064071655,-0.19460952281951904,0.04653682932257652,-0.1274101734161377,1.0,0.0,51.0,16.0,0.016,0.000435527297668159,0.0007194680511020124,0.016986936330795288,0.009248927235603333,0.011570763774216175,-0.0004534138133749366,0.13277994096279144,0.1807166486978531,0.009638700634241104,0.017611268907785416,0.001426246832124889,3.7592144508380443e-06,0.00021762876713182777,3.6527860164642334,10.0,0.0,7000.0,7000.0,7000.0,7000.0,32.766,32.766,1.191,32.766,2.793,2023.168701171875,809.5494384765625,29.597021102905273,,False,
1783648477.1051512,2026-07-09T18:54:37,245419,20260709_185431,,,,,,arming,,,,,,,,,False,0.006932626944035292,0.013758399523794651,1.0082024335861206,0.23315979540348053,-0.27170249819755554,0.3568814694881439,1.0,0.0,51.0,16.0,0.016,0.0005228169029578567,0.0006015262915752828,0.016984373331069946,0.00984934065490961,0.009353348053991795,-0.00024130864767357707,0.2528901696205139,0.18214519321918488,0.009278615936636925,0.016981294378638268,-0.00034119596239179373,3.3170981623698026e-06,0.00024382448464166373,3.647507429122925,10.0,0.0,7000.0,7000.0,7000.0,7000.0,32.766,32.766,1.195,32.766,32.766,2023.1795654296875,809.54833984375,29.606172561645508,,False,
1783648477.1153574,2026-07-09T18:54:37,245431,20260709_185431,,,,,,arming,,,,,,,,,False,0.013323024846613407,0.015655403956770897,1.0008035898208618,-0.023419152945280075,-0.12066923826932907,0.6851255297660828,0.0,0.0,52.0,16.0,0.016,0.0005228169029578567,0.0006015262915752828,0.016984373331069946,0.00984934065490961,0.009353348053991795,-0.00024130864767357707,0.2528901696205139,0.18214519321918488,0.009278615936636925,0.016981294378638268,-0.00034119596239179373,3.3170981623698026e-06,0.00024382448464166373,3.647507429122925,10.0,0.0,7000.0,7000.0,7000.0,7000.0,32.766,32.766,1.195,32.766,32.766,2023.1795654296875,809.54833984375,29.606172561645508,,False,
1783648477.125525,2026-07-09T18:54:37,245441,20260709_185431,,,,,,arming,,,,,,,,,False,0.010505213402211666,0.011862751096487045,1.0027862787246704,-0.23903338611125946,0.3931443691253662,0.5259345769882202,-2.0,0.0,28.0,13.0,0.013,0.0007550903246738017,0.001057036453858018,0.015508382581174374,0.011414768174290657,0.0137143200263381,-0.007473503705114126,0.15830688178539276,0.21284852921962738,0.01117667555809021,0.016981294378638268,-0.00034119596239179373,3.3170981623698026e-06,0.00024382448464166373,3.647507429122925,10.0,0.0,7000.0,7000.0,7000.0,7000.0,32.766,32.766,1.195,32.766,32.766,2023.1795654296875,809.54833984375,29.606172561645508,,False,
1783648477.1356876,2026-07-09T18:54:37,245451,20260709_185431,,,,,,arming,,,,,,,,,False,0.009656018577516079,0.010116242803633213,1.006270408630371,0.7348299622535706,-0.4658661484718323,0.3021582067012787,1.0,0.0,55.0,13.0,0.013,0.0007550903246738017,0.001057036453858018,0.015508382581174374,0.011414768174290657,0.0137143200263381,-0.007473503705114126,0.15830688178539276,0.21284852921962738,0.01117667555809021,0.016981294378638268,-0.00034119596239179373,3.3170981623698026e-06,0.00024382448464166373,3.647507429122925,10.0,0.0,7000.0,7000.0,7000.0,7000.0,32.766,32.766,1.195,32.766,32.766,2023.1795654296875,809.54833984375,29.606172561645508,,False,
1783648477.1458373,2026-07-09T18:54:37,245461,20260709_185431,,,,,,arming,,,,,,,,,False,0.008978831581771374,0.013346066698431969,1.0007749795913696,-0.8425041437149048,0.5869944095611572,0.21880996227264404,0.0,0.0,55.0,13.0,0.013,0.0008395287441089749,0.0008991977083496749,0.015369460918009281,0.011376462876796722,0.01135353371500969,-0.006974199786782265,0.2550089359283447,0.24300459027290344,0.01454760879278183,0.016981294378638268,-0.00034119596239179373,3.3170981623698026e-06,0.00024382448464166373,3.647507429122925,10.0,0.0,7000.0,7000.0,7000.0,7000.0,32.766,32.766,1.195,32.766,32.766,2023.1795654296875,809.54833984375,29.606172561645508,,False,
1783648477.1559868,2026-07-09T18:54:37,245471,20260709_185431,,,,,,arming,,,,,,,,,False,0.00918760895729065,0.008743319660425186,1.0052318572998047,0.9293317198753357,-0.9364196062088013,0.3811618983745575,0.0,0.0,51.0,13.0,0.013,0.0008395287441089749,0.0008991977083496749,0.015369460918009281,0.011376462876796722,0.01135353371500969,-0.006974199786782265,0.2550089359283447,0.24300459027290344,0.01454760879278183,0.015233639627695084,-0.006778080482035875,3.6401966099219862e-06,0.00025795871624723077,3.6527860164642334,10.0,0.0,7000.0,7000.0,7000.0,7000.0,32.766,32.766,1.195,32.766,32.766,2023.1795654296875,809.54833984375,29.606172561645508,,False,
1783648477.1661375,2026-07-09T18:54:37,245481,20260709_185431,,,,,,arming,,,,,,,,,False,0.016504021361470222,0.01693962700664997,0.9934337139129639,-0.963093101978302,0.46834832429885864,0.24935127794742584,0.0,-2.0,55.0,13.0,0.013,0.0010817302390933037,0.0011433179024606943,0.015233639627695084,0.01271831151098013,0.013120451010763645,-0.006666670553386211,0.29435548186302185,0.16045530140399933,0.016496742144227028,0.015233639627695084,-0.006778080482035875,3.6401966099219862e-06,0.00025795871624723077,3.6527860164642334,10.0,0.0,7000.0,7000.0,7000.0,7000.0,32.766,32.766,1.195,32.766,32.766,2023.1795654296875,809.54833984375,29.606172561645508,,False,
1783648477.1763303,2026-07-09T18:54:37,245491,20260709_185431,,,,,,arming,,,,,,,,,False,0.005370766390115023,0.008018432185053825,1.0089634656906128,0.8001977801322937,-0.46658822894096375,0.2688470780849457,0.0,2.0,25.0,15.0,0.015,0.0010817302390933037,0.0011433179024606943,0.015233639627695084,0.01271831151098013,0.013120451010763645,-0.006666670553386211,0.29435548186302185,0.16045530140399933,0.016496742144227028,0.015233639627695084,-0.006778080482035875,3.6401966099219862e-06,0.00025795871624723077,3.6527860164642334,10.0,0.0,7000.0,7000.0,7000.0,7000.0,32.766,32.766,1.195,32.766,32.766,2023.1795654296875,809.54833984375,29.606172561645508,,False,
1783648477.1865025,2026-07-09T18:54:37,245501,20260709_185431,,,,,,arming,,,,,,,,,False,0.019046366214752197,0.018304362893104553,0.985670268535614,-0.12547370791435242,0.23072001338005066,0.043319348245859146,0.0,0.0,31.0,15.0,0.015,0.000952044443693012,0.001038897898979485,0.015068238601088524,0.010645672678947449,0.011486728675663471,-0.006931579206138849,0.31780725717544556,0.3188877999782562,0.01794181577861309,0.015233639627695084,-0.006778080482035875,3.6401966099219862e-06,0.00025795871624723077,3.6527860164642334,10.0,0.0,7000.0,7000.0,7000.0,7000.0,32.766,32.766,1.195,32.766,32.766,2023.1795654296875,809.54833984375,29.606172561645508,,False,
1783648477.1966612,2026-07-09T18:54:37,245511,20260709_185431,,,,,,arming,,,,,,,,,False,0.008994918316602707,0.013174020685255527,1.006594181060791,-0.8675862550735474,1.2135823965072632,0.3602430522441864,1.0,0.0,54.0,15.0,0.015,0.000952044443693012,0.001038897898979485,0.015068238601088524,0.010645672678947449,0.011486728675663471,-0.006931579206138849,0.31780725717544556,0.3188877999782562,0.01794181577861309,0.015233639627695084,-0.006778080482035875,3.6401966099219862e-06,0.00025795871624723077,3.6527860164642334,10.0,0.0,7000.0,7000.0,7000.0,7000.0,32.766,32.766,1.195,32.766,32.766,2023.1795654296875,809.54833984375,29.606172561645508,,False,
1783648477.2068317,2026-07-09T18:54:37,245521,20260709_185431,,,,,,arming,,,,,,,,,False,0.011108813807368279,0.008607772178947926,1.015903115272522,1.26392662525177,-1.7170774936676025,0.04577067121863365,0.0,-1.0,62.0,15.0,0.015,0.0010377179132774472,0.0007795804995112121,0.014939917251467705,0.010915510356426239,0.008854912593960762,-0.00693943677470088,0.42775511741638184,0.31995847821235657,0.018894094973802567,0.014871576800942421,-0.006787946913391352,3.787637524510501e-06,0.00024110758386086673,3.647507429122925,10.0,0.0,7000.0,7000.0,7000.0,7000.0,32.766,32.766,1.202,32.766,32.766,2023.0975341796875,809.5555419921875,29.616186141967773,,False,
1783648477.2170136,2026-07-09T18:54:37,245531,20260709_185431,,,,,,arming,,,,,,,,,False,0.016227509826421738,0.017985617741942406,0.9909995198249817,-1.309253215789795,1.281614065170288,0.01849495805799961,0.0,0.0,55.0,15.0,0.015,0.0010377179132774472,0.0007795804995112121,0.014939917251467705,0.010915510356426239,0.008854912593960762,-0.00693943677470088,0.42775511741638184,0.31995847821235657,0.018894094973802567,0.014871576800942421,-0.006787946913391352,3.787637524510501e-06,0.00024110758386086673,3.647507429122925,10.0,0.0,7000.0,7000.0,7000.0,7000.0,32.766,32.766,1.202,32.766,32.766,2023.0975341796875,809.5555419921875,29.616186141967773,,False,
1783648477.2271874,2026-07-09T18:54:37,245541,20260709_185431,,,,,,arming,,,,,,,,,False,0.0020676269195973873,0.00142643041908741,1.0088552236557007,0.6172086596488953,-0.6186661124229431,0.11004586517810822,0.0,0.0,61.0,15.0,0.015,0.0014180631842464209,0.0007982226088643074,0.014807237312197685,0.012762662023305893,0.00822434201836586,-0.006205539219081402,0.43140584230422974,0.32216519117355347,0.020261753350496292,0.014871576800942421,-0.006787946913391352,3.787637524510501e-06,0.00024110758386086673,3.647507429122925,10.0,0.0,7000.0,7000.0,7000.0,7000.0,32.766,32.766,1.202,32.766,32.766,2023.0975341796875,809.5555419921875,29.616186141967773,,False,
1783648477.2374215,2026-07-09T18:54:37,245554,20260709_185431,,,,,,arming,,,,,,,,,False,0.01729423925280571,0.01537168025970459,0.9932627081871033,-0.5554594993591309,0.34542253613471985,-0.39836859703063965,-2.0,0.0,48.0,15.0,0.015,0.0013795224949717522,0.0015298661310225725,0.014771844260394573,0.011292718350887299,0.012876009568572044,-0.0049551366828382015,0.43140584230422974,0.32216519117355347,0.020261753350496292,0.014871576800942421,-0.006787946913391352,3.787637524510501e-06,0.00024110758386086673,3.647507429122925,10.0,0.0,7000.0,7000.0,7000.0,7000.0,32.766,32.766,1.202,32.766,32.766,2023.0975341796875,809.5555419921875,29.616186141967773,,False,
1783648477.2475786,2026-07-09T18:54:37,245561,20260709_185431,,,,,,arming,,,,,,,,,False,0.012485282495617867,0.010493211448192596,1.0091946125030518,-0.40213221311569214,0.2224653661251068,0.1558968871831894,1.0,1.0,57.0,15.0,0.015,0.0013795224949717522,0.0015298661310225725,0.014771844260394573,0.011292718350887299,0.012876009568572044,-0.0049551366828382015,0.42530032992362976,0.432066947221756,0.02109285071492195,0.014871576800942421,-0.006787946913391352,3.787637524510501e-06,0.00024110758386086673,3.647507429122925,10.0,0.0,7000.0,7000.0,7000.0,7000.0,32.766,32.766,1.202,32.766,32.766,2023.0975341796875,809.5555419921875,29.616186141967773,,False,
1783648477.2577379,2026-07-09T18:54:37,245574,20260709_185431,,,,,,arming,,,,,,,,,False,0.018436122685670853,0.01956879533827305,1.0001450777053833,0.9164895415306091,-0.6349834203720093,0.03327164798974991,0.0,0.0,53.0,15.0,0.015,0.001055569970048964,0.0012059988221153617,0.014679397456347942,0.009056095965206623,0.01035307440906763,-0.004392141010612249,0.42530032992362976,0.432066947221756,0.02109285071492195,0.014679397456347942,-0.0045350114814937115,4.053713837492978e-06,0.0002322318614460528,3.6527860164642334,10.0,0.0,7000.0,7000.0,7000.0,7000.0,32.766,32.766,1.202,32.766,32.766,2023.0975341796875,809.5555419921875,29.616186141967773,,False,
1783648477.2678967,2026-07-09T18:54:37,245581,20260709_185431,,,,,,arming,,,,,,,,,False,0.013674959540367126,0.015019797720015049,1.0113227367401123,-0.822886049747467,0.7205710411071777,-0.18484801054000854,0.0,-2.0,59.0,15.0,0.015,0.001055569970048964,0.0012059988221153617,0.014679397456347942,0.009056095965206623,0.01035307440906763,-0.004392141010612249,0.43901920318603516,0.348043829202652,0.020360596477985382,0.014679397456347942,-0.0045350114814937115,4.053713837492978e-06,0.0002322318614460528,3.6527860164642334,10.0,0.0,7000.0,7000.0,7000.0,7000.0,32.766,32.766,1.202,32.766,32.766,2023.0975341796875,809.5555419921875,29.616186141967773,,False,
1783648477.2780561,2026-07-09T18:54:37,245594,20260709_185431,,,,,,arming,,,,,,,,,False,0.00674574775621295,0.011454734951257706,1.0087690353393555,1.0602054595947266,-1.4169095754623413,-0.019624795764684677,0.0,0.0,30.0,18.0,0.018,0.001942404080182314,0.0012637178879231215,0.01611991599202156,0.014833224005997181,0.010687521658837795,0.004641128703951836,0.43901920318603516,0.348043829202652,0.020360596477985382,0.014679397456347942,-0.0045350114814937115,4.053713837492978e-06,0.0002322318614460528,3.6527860164642334,10.0,0.0,7000.0,7000.0,7000.0,7000.0,32.766,32.766,1.202,32.766,32.766,2023.0975341796875,809.5555419921875,29.616186141967773,,False,
1783648477.2882144,2026-07-09T18:54:37,245601,20260709_185431,,,,,,arming,,,,,,,,,False,0.012539117597043514,0.014715407975018024,0.9904391765594482,-1.4591373205184937,1.4890953302383423,0.228321835398674,0.0,2.0,32.0,18.0,0.018,0.001942404080182314,0.0012637178879231215,0.01611991599202156,0.014833224005997181,0.010687521658837795,0.004641128703951836,0.4616430103778839,0.46936658024787903,0.01976003684103489,0.014679397456347942,-0.0045350114814937115,4.053713837492978e-06,0.0002322318614460528,3.6527860164642334,10.0,0.0,7000.0,7000.0,7000.0,7000.0,32.766,32.766,1.202,32.766,32.766,2023.0975341796875,809.5555419921875,29.616186141967773,,False,
1783648477.298469,2026-07-09T18:54:37,245615,20260709_185431,,,,,,arming,,,,,,,,,False,0.0026215710677206516,0.004433995112776756,1.005196452140808,1.3464685678482056,-0.906359076499939,0.515430212020874,0.0,0.0,50.0,18.0,0.018,0.0010740018915385008,0.0012544398196041584,0.016228938475251198,0.008265869691967964,0.010702543891966343,0.005061364267021418,0.45964154601097107,0.46649298071861267,0.019609574228525162,0.014679397456347942,-0.0045350114814937115,4.053713837492978e-06,0.0002322318614460528,3.6527860164642334,10.0,0.0,7000.0,7000.0,7000.0,7000.0,32.766,32.766,1.202,32.766,32.766,2023.0975341796875,809.5555419921875,29.616186141967773,,False,
1783648477.3086321,2026-07-09T18:54:37,245621,20260709_185431,,,,,,arming,,,,,,,,,False,0.017074478790163994,0.023414693772792816,0.9896840453147888,-1.2089390754699707,0.8058211207389832,-0.3635714054107666,0.0,0.0,57.0,18.0,0.018,0.0010740018915385008,0.0012544398196041584,0.016228938475251198,0.008265869691967964,0.010702543891966343,0.005061364267021418,0.45964154601097107,0.46649298071861267,0.019609574228525162,0.016282517462968826,0.005496711004525423,3.919188657164341e-06,0.00021154725982341915,3.647507429122925,10.0,0.0,7000.0,7000.0,7000.0,7000.0,32.766,32.766,1.196,32.766,32.766,2023.0211181640625,809.5623168945312,29.62187957763672,,False,
1783648477.3188095,2026-07-09T18:54:37,245634,20260709_185431,,,,,,arming,,,,,,,,,False,0.007962756790220737,0.004326327703893185,1.014148473739624,0.8981072902679443,-0.49583354592323303,0.004082296043634415,0.0,0.0,52.0,18.0,0.018,0.0018732721218839288,0.0011541381245478988,0.01619854010641575,0.013304926455020905,0.010039906948804855,0.0044679101556539536,0.45964154601097107,0.46649298071861267,0.019609574228525162,0.016282517462968826,0.005496711004525423,3.919188657164341e-06,0.00021154725982341915,3.647507429122925,10.0,0.0,7000.0,7000.0,7000.0,7000.0,32.766,32.766,1.196,32.766,32.766,2023.0211181640625,809.5623168945312,29.62187957763672,,False,
1783648477.3289707,2026-07-09T18:54:37,245641,20260709_185431,,,,,,arming,,,,,,,,,False,0.021757323294878006,0.023903900757431984,0.9968366622924805,-0.3732448220252991,-0.025399209931492805,-0.3655167520046234,0.0,-2.0,56.0,16.0,0.016,0.0018732721218839288,0.0011541381245478988,0.01619854010641575,0.013304926455020905,0.010039906948804855,0.0044679101556539536,0.49364426732063293,0.3985607922077179,0.020630186423659325,0.016282517462968826,0.005496711004525423,3.919188657164341e-06,0.00021154725982341915,3.647507429122925,10.0,0.0,7000.0,7000.0,7000.0,7000.0,32.766,32.766,1.196,32.766,32.766,2023.0211181640625,809.5623168945312,29.62187957763672,,False,
1783648477.3391275,2026-07-09T18:54:37,245655,20260709_185431,,,,,,arming,,,,,,,,,False,0.014278678223490715,0.012517349794507027,1.0103857517242432,-1.2730947732925415,1.3767056465148926,0.11294365674257278,0.0,1.0,54.0,16.0,0.016,0.0014562810538336635,0.0012001056456938386,0.01630595326423645,0.009904684498906136,0.00992687325924635,0.005109347403049469,0.5107505917549133,0.4683080017566681,0.02095731906592846,0.016282517462968826,0.005496711004525423,3.919188657164341e-06,0.00021154725982341915,3.647507429122925,10.0,0.0,7000.0,7000.0,7000.0,7000.0,32.766,32.766,1.196,32.766,32.766,2023.0211181640625,809.5623168945312,29.62187957763672,,False,
1783648477.3493986,2026-07-09T18:54:37,245666,20260709_185431,,,,,,arming,,,,,,,,,False,0.009572830982506275,0.008745884522795677,1.0049082040786743,2.068664789199829,-1.7221674919128418,0.20473924279212952,0.0,0.0,54.0,16.0,0.016,0.0014562810538336635,0.0012001056456938386,0.01630595326423645,0.009904684498906136,0.00992687325924635,0.005109347403049469,0.5107505917549133,0.4683080017566681,0.02095731906592846,0.01642250269651413,0.006178530864417553,3.991343874076847e-06,0.00020824922830797732,3.647507429122925,10.0,0.0,7000.0,7000.0,7000.0,7000.0,32.766,32.766,1.196,32.766,32.766,2023.0211181640625,809.5623168945312,29.62187957763672,,False,
1783648477.359598,2026-07-09T18:54:37,245675,20260709_185431,,,,,,arming,,,,,,,,,False,0.01468118280172348,0.01564575731754303,0.990880012512207,-1.4406989812850952,1.7906725406646729,0.19937764108181,-1.0,1.0,55.0,16.0,0.016,0.0009595698793418705,0.0016215606592595577,0.01642250269651413,0.006431062240153551,0.011732527054846287,0.006340531632304192,0.5507623553276062,0.4653777480125427,0.02132204920053482,0.01642250269651413,0.006178530864417553,3.991343874076847e-06,0.00020824922830797732,3.6527860164642334,10.0,0.0,7000.0,7000.0,7000.0,7000.0,32.766,32.766,1.196,32.766,32.766,2023.0211181640625,809.5623168945312,29.62187957763672,,False,
1783648477.3697512,2026-07-09T18:54:37,245681,20260709_185431,,,,,,arming,,,,,,,,,False,-0.0002942737773992121,0.00103987124748528,1.0033818483352661,1.2064547538757324,-1.6568167209625244,0.14064595103263855,1.0,-2.0,55.0,16.0,0.016,0.0009595698793418705,0.0016215606592595577,0.01642250269651413,0.006431062240153551,0.011732527054846287,0.006340531632304192,0.5507623553276062,0.4653777480125427,0.02132204920053482,0.01642250269651413,0.006178530864417553,3.991343874076847e-06,0.00020824922830797732,3.6527860164642334,10.0,0.0,7000.0,7000.0,7000.0,7000.0,32.766,32.766,1.196,32.766,32.766,2023.0211181640625,809.5623168945312,29.62187957763672,,False,
1783648477.3799155,2026-07-09T18:54:37,245695,20260709_185431,,,,,,arming,,,,,,,,,False,0.020385995507240295,0.026160335168242455,0.989097535610199,-0.5293616652488708,0.9251288175582886,-0.3081083297729492,0.0,2.0,35.0,14.0,0.014,0.0007902047946117818,0.000957706302870065,0.01542891189455986,0.005115339998155832,0.007105248048901558,0.0007327174535021186,0.5654821395874023,0.5574591755867004,0.02505585364997387,0.01642250269651413,0.006178530864417553,3.991343874076847e-06,0.00020824922830797732,3.6527860164642334,10.0,0.0,7000.0,7000.0,7000.0,7000.0,32.766,32.766,1.196,32.766,32.766,2023.0211181640625,809.5623168945312,29.62187957763672,,False,
1783648477.390076,2026-07-09T18:54:37,245701,20260709_185431,,,,,,arming,,,,,,,,,False,0.012155073694884777,0.009191211313009262,1.0194947719573975,0.2781084477901459,0.07122164219617844,-0.15127485990524292,0.0,0.0,29.0,14.0,0.014,0.0007902047946117818,0.000957706302870065,0.01542891189455986,0.005115339998155832,0.007105248048901558,0.0007327174535021186,0.5654821395874023,0.5574591755867004,0.02505585364997387,0.01642250269651413,0.006178530864417553,3.991343874076847e-06,0.00020824922830797732,3.6527860164642334,10.0,0.0,7000.0,7000.0,7000.0,7000.0,32.766,32.766,1.196,32.766,32.766,2023.0211181640625,809.5623168945312,29.62187957763672,,False,
1783648477.4002328,2026-07-09T18:54:37,245716,20260709_185431,,,,,,arming,,,,,,,,,False,0.022489221766591072,0.024815840646624565,1.0006518363952637,-0.06355565041303635,0.04824572056531906,0.08436532318592072,0.0,0.0,56.0,14.0,0.014,0.0009028074564412236,0.001115758204832673,0.015441538766026497,0.005701188463717699,0.008024752140045166,0.0012496302369982004,0.559807300567627,0.548965334892273,0.022935228422284126,0.015454156324267387,0.0011238729348406196,3.7998152038198896e-06,0.0001975181367015466,3.6527860164642334,10.0,0.0,7000.0,7000.0,7000.0,7000.0,32.766,32.766,1.196,32.766,32.766,2023.0211181640625,809.5623168945312,29.62187957763672,,False,
1783648477.410391,2026-07-09T18:54:37,245721,20260709_185431,,,,,,arming,,,,,,,,,False,0.014364074915647507,0.013334007002413273,1.0036002397537231,-1.411373496055603,1.4822416305541992,0.2801564633846283,0.0,0.0,59.0,14.0,0.014,0.0009028074564412236,0.001115758204832673,0.015441538766026497,0.005701188463717699,0.008024752140045166,0.0012496302369982004,0.559807300567627,0.548965334892273,0.022935228422284126,0.015454156324267387,0.0011238729348406196,3.7998152038198896e-06,0.0001975181367015466,3.647507429122925,10.0,0.0,7000.0,7000.0,7000.0,7000.0,32.766,32.766,1.192,32.766,32.766,2023.1358642578125,809.55224609375,29.62418556213379,,False,
1783648477.4205623,2026-07-09T18:54:37,245735,20260709_185431,,,,,,arming,,,,,,,,,False,0.0037424780894070864,0.0089799202978611,1.0085970163345337,1.686099886894226,-1.5148276090621948,0.112338125705719,0.0,0.0,56.0,14.0,0.014,0.0010297149419784546,0.0012928156647831202,0.015469498001039028,0.006748690269887447,0.00925534125417471,0.0017943365965038538,0.5672546029090881,0.5140395760536194,0.024247974157333374,0.015454156324267387,0.0011238729348406196,3.7998152038198896e-06,0.0001975181367015466,3.647507429122925,10.0,0.0,7000.0,7000.0,7000.0,7000.0,32.766,32.766,1.192,32.766,32.766,2023.1358642578125,809.55224609375,29.62418556213379,,False,
1783648477.4307168,2026-07-09T18:54:37,245741,20260709_185431,,,,,,arming,,,,,,,,,False,0.014997218735516071,0.018528884276747704,0.9875739812850952,-1.4837112426757812,2.0433549880981445,-0.4639398455619812,0.0,-1.0,51.0,14.0,0.014,0.0010297149419784546,0.0012928156647831202,0.015469498001039028,0.006748690269887447,0.00925534125417471,0.0017943365965038538,0.5672546029090881,0.5140395760536194,0.024247974157333374,0.015454156324267387,0.0011238729348406196,3.7998152038198896e-06,0.0001975181367015466,3.647507429122925,10.0,0.0,7000.0,7000.0,7000.0,7000.0,32.766,32.766,1.192,32.766,32.766,2023.1358642578125,809.55224609375,29.62418556213379,,False,
1783648477.4408717,2026-07-09T18:54:37,245755,20260709_185431,,,,,,arming,,,,,,,,,False,0.0030548821669071913,0.001228057430125773,1.0063583850860596,1.2695207595825195,-1.4174290895462036,-0.24364306032657623,0.0,0.0,57.0,14.0,0.014,0.0015135855646803975,0.0012387247988954186,0.014836935326457024,0.00913708470761776,0.008916674181818962,-0.0017214658437296748,0.583462655544281,0.5639335513114929,0.02415275014936924,0.015454156324267387,0.0011238729348406196,3.7998152038198896e-06,0.0001975181367015466,3.647507429122925,10.0,0.0,7000.0,7000.0,7000.0,7000.0,32.766,32.766,1.192,32.766,32.766,2023.1358642578125,809.55224609375,29.62418556213379,,False,
1783648477.4510307,2026-07-09T18:54:37,245767,20260709_185431,,,,,,arming,,,,,,,,,False,0.01760636642575264,0.02207210287451744,0.9918428659439087,-0.5296909809112549,0.575762927532196,-0.1114083081483841,0.0,1.0,52.0,14.0,0.014,0.0015135855646803975,0.0012387247988954186,0.014836935326457024,0.00913708470761776,0.008916674181818962,-0.0017214658437296748,0.583462655544281,0.5639335513114929,0.02415275014936924,0.014811815693974495,-0.0018769527086988091,3.6749056562257465e-06,0.00019337149569764733,3.6527860164642334,10.0,0.0,7000.0,7000.0,7000.0,7000.0,32.766,32.766,1.192,32.766,32.766,2023.1358642578125,809.55224609375,29.62418556213379,,False,
1783648477.4611983,2026-07-09T18:54:37,245775,20260709_185431,,,,,,arming,,,,,,,,,False,0.01237871777266264,0.0041564046405255795,1.0124353170394897,-0.34312084317207336,0.18994247913360596,0.12811246514320374,0.0,0.0,54.0,14.0,0.014,0.0008438581717200577,0.001129491371102631,0.014811815693974495,0.005226088222116232,0.007843964733183384,-0.0017454714979976416,0.5842291116714478,0.566422700881958,0.025725925341248512,0.014811815693974495,-0.0018769527086988091,3.6749056562257465e-06,0.00019337149569764733,3.6527860164642334,10.0,0.0,7000.0,7000.0,7000.0,7000.0,32.766,32.766,1.192,32.766,32.766,2023.1358642578125,809.55224609375,29.62418556213379,,False,
1783648477.4716873,2026-07-09T18:54:37,245781,20260709_185431,,,,,,arming,,,,,,,,,False,0.008398008532822132,0.0157272107899189,0.996819257736206,0.4313223361968994,-0.43734854459762573,0.7178417444229126,0.0,0.0,56.0,14.0,0.014,0.0008438581717200577,0.001129491371102631,0.014811815693974495,0.005226088222116232,0.007843964733183384,-0.0017454714979976416,0.5842291116714478,0.566422700881958,0.025725925341248512,0.014811815693974495,-0.0018769527086988091,3.6749056562257465e-06,0.00019337149569764733,3.6527860164642334,10.0,0.0,7000.0,7000.0,7000.0,7000.0,32.766,32.766,1.192,32.766,32.766,2023.1358642578125,809.55224609375,29.62418556213379,,False,
1783648477.4818535,2026-07-09T18:54:37,245795,20260709_185431,,,,,,arming,,,,,,,,,False,0.017064545303583145,0.013143802992999554,0.9982009530067444,-1.2313507795333862,0.8490158319473267,-0.052083585411310196,0.0,0.0,28.0,15.0,0.015,0.0009481708402745426,0.0012805608566850424,0.014875322580337524,0.0052543748170137405,0.007738659158349037,-0.0009302420658059418,0.5858919620513916,0.5663226246833801,0.031022634357213974,0.014811815693974495,-0.0018769527086988091,3.6749056562257465e-06,0.00019337149569764733,3.6527860164642334,10.0,0.0,7000.0,7000.0,7000.0,7000.0,32.766,32.766,1.192,32.766,32.766,2023.1358642578125,809.55224609375,29.62418556213379,,False,
