pc_time_s,pc_time_iso,cf_time_ms,session_id,motif_id,motif_type,motif_phase,rep_index,motif_param_json,flight_phase,cmd_vx_m_s,cmd_vy_m_s,cmd_yaw_rate_deg_s,cmd_height_m,cmd_vx_raw_m_s,cmd_vy_raw_m_s,cmd_yaw_rate_raw_deg_s,cmd_height_raw_m,safety_override_active,acc_x_g,acc_y_g,acc_z_g,gyro_x_dps,gyro_y_dps,gyro_z_dps,flow_delta_x_px,flow_delta_y_px,flow_squal,zrange_mm,zrange_m,x_m,y_m,z_m,vx_m_s,vy_m_s,vz_m_s,roll_deg,pitch_deg,yaw_deg,kalman_state_z_m,kalman_state_pz,kalman_var_z,kalman_var_pz,battery_v,battery_level_pct,pm_state,motor_m1,motor_m2,motor_m3,motor_m4,range_front_m,range_back_m,range_left_m,range_right_m,range_up_m,baro_asl_m,baro_pressure_hpa,baro_temp_c,safety_flag,should_land,event
1783703845.030263,2026-07-10T10:17:25,,20260710_101720,,,,,,ground_idle,,,,,,,,,False,,,,,,,,,,,,,,,,,,,,,,,,,,,,,,,,,,,,,,,,,False,
1783703845.0404294,2026-07-10T10:17:25,,20260710_101720,,,,,,ground_idle,,,,,,,,,False,,,,,,,,,,,,,,,,,,,,,,,,,,,,,,,,,,,,,,,,,False,
1783703845.0509622,2026-07-10T10:17:25,276661,20260710_101720,,,,,,ground_idle,,,,,,,,,False,0.02197440341114998,0.0013245093869045377,0.9998859167098999,0.16151024401187897,-0.2075497955083847,-0.04181190952658653,0.0,-2.0,70.0,23.0,0.023,,,,,,,,,,,,,,,,,,,,,,,,,,,,,,False,
1783703845.0611415,2026-07-10T10:17:25,276671,20260710_101720,,,,,,ground_idle,,,,,,,,,False,0.02330961637198925,0.0036303941160440445,1.0014070272445679,0.029115645214915276,-0.08096147328615189,0.07053021341562271,0.0,0.0,66.0,23.0,0.023,0.003874206682667136,-0.0024045142345130444,0.024357877671718597,0.004302733112126589,0.0016825372586026788,0.00039234760333783925,0.19029611349105835,1.2479662895202637,0.048882439732551575,,,,,,,,,,,,,,,,,,,,,False,
1783703845.0713632,2026-07-10T10:17:25,276681,20260710_101720,,,,,,ground_idle,,,,,,,,,False,0.023611251264810562,0.004678398836404085,1.000976800918579,0.2888946235179901,0.356212854385376,-0.11802110075950623,2.0,-3.0,78.0,23.0,0.023,0.003874206682667136,-0.0024045142345130444,0.024357877671718597,0.004302733112126589,0.0016825372586026788,0.00039234760333783925,0.19029611349105835,1.2479662895202637,0.048882439732551575,,,,,,,,,,,,,,,,,,,,,False,
1783703845.0815554,2026-07-10T10:17:25,276691,20260710_101720,,,,,,ground_idle,,,,,,,,,False,0.022307410836219788,0.004243673291057348,0.9982315897941589,-0.08118675649166107,-0.13046221435070038,0.14461301267147064,-1.0,2.0,52.0,23.0,0.023,0.0041516441851854324,-0.002735100919380784,0.02437451109290123,0.0052865371108055115,-6.265319098019972e-05,0.0006453313981182873,0.20309527218341827,1.2441685199737549,0.05008484050631523,,,,,,,,,,,,,,,,,,,,,False,
1783703845.0917363,2026-07-10T10:17:25,276701,20260710_101720,,,,,,ground_idle,,,,,,,,,False,0.023964421823620796,0.004330025985836983,0.9990860819816589,0.1557140201330185,0.12264366447925568,-0.10519246011972427,0.0,1.0,52.0,25.0,0.025,0.0041516441851854324,-0.002735100919380784,0.02437451109290123,0.0052865371108055115,-6.265319098019972e-05,0.0006453313981182873,0.20309527218341827,1.2441685199737549,0.05008484050631523,0.02467941865324974,0.0020398690830916166,3.109431190750911e-06,0.00020514641073532403,3.710850477218628,10.0,0.0,0.0,0.0,0.0,0.0,32.766,32.766,0.28300000000000003,32.766,2.843,,,,,False,
1783703845.1019287,2026-07-10T10:17:25,276711,20260710_101720,,,,,,ground_idle,,,,,,,,,False,0.02563268318772316,0.0048771933652460575,1.000631332397461,0.05876018851995468,-0.04439416155219078,0.09441609680652618,0.0,0.0,65.0,25.0,0.025,0.0038471664302051067,-0.0027336629573255777,0.02467941865324974,0.0035419086925685406,0.00013602930994238704,0.0021184710785746574,0.2037103921175003,1.2555488348007202,0.050881754606962204,0.02467941865324974,0.0020398690830916166,3.109431190750911e-06,0.00020514641073532403,3.710850477218628,10.0,0.0,0.0,0.0,0.0,0.0,32.766,32.766,0.28300000000000003,32.766,2.843,,,,,False,
1783703845.112113,2026-07-10T10:17:25,276721,20260710_101720,,,,,,ground_idle,,,,,,,,,False,0.02509927563369274,0.003906495403498411,1.0010803937911987,-0.25445809960365295,-0.0689719170331955,-0.1922953873872757,0.0,0.0,71.0,25.0,0.025,0.0038471664302051067,-0.0027336629573255777,0.02467941865324974,0.0035419086925685406,0.00013602930994238704,0.0021184710785746574,0.2037103921175003,1.2555488348007202,0.050881754606962204,0.02467941865324974,0.0020398690830916166,3.109431190750911e-06,0.00020514641073532403,3.710850477218628,10.0,0.0,0.0,0.0,0.0,0.0,32.766,32.766,0.28300000000000003,32.766,2.843,,,,,False,
1783703845.1223936,2026-07-10T10:17:25,276733,20260710_101720,,,,,,ground_idle,,,,,,,,,False,0.023053551092743874,0.0029582802671939135,0.9977985620498657,-0.021642394363880157,-0.10332606732845306,0.039319660514593124,0.0,-1.0,69.0,25.0,0.025,0.003211896400898695,-0.0027354718185961246,0.02472279593348503,0.0005690836696885526,0.00035815563751384616,0.0021799642127007246,0.20435044169425964,1.2801730632781982,0.05075729265809059,0.02467941865324974,0.0020398690830916166,3.109431190750911e-06,0.00020514641073532403,3.710850477218628,10.0,0.0,0.0,0.0,0.0,0.0,32.766,32.766,0.28300000000000003,32.766,2.843,,,,,False,
1783703845.1326253,2026-07-10T10:17:25,276743,20260710_101720,,,,,,ground_idle,,,,,,,,,False,0.02530418150126934,0.004246827214956284,0.9997018575668335,0.08674044907093048,-0.006550661753863096,0.1752604991197586,0.0,1.0,61.0,24.0,0.024,0.003211896400898695,-0.0027354718185961246,0.02472279593348503,0.0005690836696885526,0.00035815563751384616,0.0021799642127007246,0.20435044169425964,1.2801730632781982,0.05075729265809059,0.02467941865324974,0.0020398690830916166,3.109431190750911e-06,0.00020514641073532403,3.710850477218628,10.0,0.0,0.0,0.0,0.0,0.0,32.766,32.766,0.28300000000000003,32.766,2.843,,,,,False,
1783703845.1428397,2026-07-10T10:17:25,276752,20260710_101720,,,,,,ground_idle,,,,,,,,,False,0.024761037901043892,0.0025498445611447096,0.9985144734382629,0.11169253289699554,0.1636074185371399,-0.047079287469387054,0.0,1.0,61.0,24.0,0.024,0.0032084600534290075,-0.002736627124249935,0.02444438822567463,0.0008006318239495158,0.0002745914098341018,0.00037076897569932044,0.2038171887397766,1.2811224460601807,0.05070105940103531,0.02444799430668354,0.00032577148522250354,3.2211535199166974e-06,0.0002136497787432745,3.710850477218628,10.0,0.0,0.0,0.0,0.0,0.0,32.766,32.766,0.28300000000000003,32.766,2.843,2018.6739501953125,809.9484252929688,31.523637771606445,,False,
1783703845.1532292,2026-07-10T10:17:25,276763,20260710_101720,,,,,,ground_idle,,,,,,,,,False,0.02514668181538582,0.0029434766620397568,0.998783528804779,0.185735285282135,0.2197771966457367,-0.0340399444103241,0.0,0.0,69.0,24.0,0.024,0.0032084600534290075,-0.002736627124249935,0.02444438822567463,0.0008006318239495158,0.0002745914098341018,0.00037076897569932044,0.2038171887397766,1.2811224460601807,0.05070105940103531,0.02444799430668354,0.00032577148522250354,3.2211535199166974e-06,0.0002136497787432745,3.710850477218628,10.0,0.0,0.0,0.0,0.0,0.0,32.766,32.766,0.28300000000000003,32.766,2.843,2018.6739501953125,809.9484252929688,31.523637771606445,,False,
1783703845.1634593,2026-07-10T10:17:25,276773,20260710_101720,,,,,,ground_idle,,,,,,,,,False,0.024171944707632065,0.0033571231178939342,1.0008443593978882,-0.01316345576196909,0.37270817160606384,0.0645562931895256,0.0,0.0,78.0,24.0,0.024,0.0035232992377132177,-0.002734221750870347,0.024451589211821556,0.002749726641923189,0.0001683789014350623,0.00024699425557628274,0.20392699539661407,1.2659306526184082,0.050681985914707184,0.02444799430668354,0.00032577148522250354,3.2211535199166974e-06,0.0002136497787432745,3.710850477218628,10.0,0.0,0.0,0.0,0.0,0.0,32.766,32.766,0.28300000000000003,32.766,2.843,2018.6739501953125,809.9484252929688,31.523637771606445,,False,
1783703845.1736758,2026-07-10T10:17:25,276783,20260710_101720,,,,,,ground_idle,,,,,,,,,False,0.022389953956007957,0.002126923995092511,1.0022873878479004,0.08181463927030563,-0.3496972918510437,-0.19798679649829865,0.0,1.0,57.0,24.0,0.024,0.0035232992377132177,-0.002734221750870347,0.024451589211821556,0.002749726641923189,0.0001683789014350623,0.00024699425557628274,0.20392699539661407,1.2659306526184082,0.050681985914707184,0.02444799430668354,0.00032577148522250354,3.2211535199166974e-06,0.0002136497787432745,3.710850477218628,10.0,0.0,0.0,0.0,0.0,0.0,32.766,32.766,0.28300000000000003,32.766,2.843,2018.6739501953125,809.9484252929688,31.523637771606445,,False,
1783703845.1839004,2026-07-10T10:17:25,276793,20260710_101720,,,,,,ground_idle,,,,,,,,,False,0.0239108819514513,0.0015682862140238285,1.0002700090408325,0.1214778870344162,0.21052286028862,0.08211687952280045,-1.0,0.0,51.0,25.0,0.025,0.003218136029317975,-0.0027347560971975327,0.024457326158881187,0.0013184804702177644,7.434056169586256e-05,0.00036129041109234095,0.20723511278629303,1.2727906703948975,0.050042156130075455,0.02444799430668354,0.00032577148522250354,3.2211535199166974e-06,0.0002136497787432745,3.710850477218628,10.0,0.0,0.0,0.0,0.0,0.0,32.766,32.766,0.28300000000000003,32.766,2.843,2018.6739501953125,809.9484252929688,31.523637771606445,,False,
1783703845.194138,2026-07-10T10:17:25,276803,20260710_101720,,,,,,ground_idle,,,,,,,,,False,0.02301427721977234,0.004469112027436495,0.9993647933006287,-0.2749967575073242,-0.30003389716148376,-0.13412606716156006,0.0,-1.0,62.0,25.0,0.025,0.003218136029317975,-0.0027347560971975327,0.024457326158881187,0.0013184804702177644,7.434056169586256e-05,0.00036129041109234095,0.20723511278629303,1.2727906703948975,0.050042156130075455,0.02472231350839138,0.001909895334392786,3.136478198939585e-06,0.0002110661444021389,3.710850477218628,10.0,0.0,0.0,0.0,0.0,0.0,32.766,32.766,0.281,0.337,32.766,2018.6739501953125,809.9484252929688,31.523637771606445,,False,
1783703845.2043543,2026-07-10T10:17:25,276813,20260710_101720,,,,,,ground_idle,,,,,,,,,False,0.023687900975346565,0.004350639414042234,0.9979516863822937,-0.21720050275325775,-0.02546125464141369,-0.17250151932239532,0.0,0.0,73.0,25.0,0.025,0.0034914046991616488,-0.0024437240790575743,0.024722617119550705,0.002779898466542363,0.0012347912415862083,0.0019516472239047289,0.19754213094711304,1.261001706123352,0.04879888519644737,0.02472231350839138,0.001909895334392786,3.136478198939585e-06,0.0002110661444021389,3.710850477218628,10.0,0.0,0.0,0.0,0.0,0.0,32.766,32.766,0.281,0.337,32.766,2018.6739501953125,809.9484252929688,31.523637771606445,,False,
1783703845.2145224,2026-07-10T10:17:25,276823,20260710_101720,,,,,,ground_idle,,,,,,,,,False,0.023062607273459435,0.0025113807059824467,0.9998541474342346,0.026191091164946556,-0.16548840701580048,-0.0706222653388977,0.0,0.0,67.0,25.0,0.025,0.0034914046991616488,-0.0024437240790575743,0.024722617119550705,0.002779898466542363,0.0012347912415862083,0.0019516472239047289,0.19754213094711304,1.261001706123352,0.04879888519644737,0.02472231350839138,0.001909895334392786,3.136478198939585e-06,0.0002110661444021389,3.710850477218628,10.0,0.0,0.0,0.0,0.0,0.0,32.766,32.766,0.281,0.337,32.766,2018.6739501953125,809.9484252929688,31.523637771606445,,False,
1783703845.2246988,2026-07-10T10:17:25,276833,20260710_101720,,,,,,ground_idle,,,,,,,,,False,0.024648014456033707,0.0025174375623464584,1.0001860857009888,-0.22293034195899963,-0.30907338857650757,0.16937245428562164,2.0,0.0,67.0,25.0,0.025,0.0035493674222379923,-0.0024173285346478224,0.024760596454143524,0.003032493172213435,0.001360265538096428,0.0017795489402487874,0.19458770751953125,1.262319564819336,0.047726746648550034,0.02472231350839138,0.001909895334392786,3.136478198939585e-06,0.0002110661444021389,3.710850477218628,10.0,0.0,0.0,0.0,0.0,0.0,32.766,32.766,0.281,0.337,32.766,2018.6739501953125,809.9484252929688,31.523637771606445,,False,
1783703845.2349625,2026-07-10T10:17:25,276843,20260710_101720,,,,,,ground_idle,,,,,,,,,False,0.024215415120124817,0.004060101695358753,1.0016525983810425,0.09653186053037643,0.03348525986075401,0.001938799861818552,-2.0,4.0,63.0,24.0,0.024,0.0035493674222379923,-0.0024173285346478224,0.024760596454143524,0.003032493172213435,0.001360265538096428,0.0017795489402487874,0.19458770751953125,1.262319564819336,0.047726746648550034,0.02472231350839138,0.001909895334392786,3.136478198939585e-06,0.0002110661444021389,3.710850477218628,10.0,0.0,0.0,0.0,0.0,0.0,32.766,32.766,0.281,0.337,32.766,2018.6739501953125,809.9484252929688,31.523637771606445,,False,
1783703845.2452347,2026-07-10T10:17:25,276853,20260710_101720,,,,,,ground_idle,,,,,,,,,False,0.02256173826754093,0.0023015053011476994,1.0018380880355835,-0.41344907879829407,0.17481288313865662,-0.078636035323143,0.0,-2.0,57.0,24.0,0.024,0.003526177955791354,-0.002426630351692438,0.02446880005300045,0.0026347367092967033,0.0011391362641006708,6.391487113432959e-05,0.19389067590236664,1.2695794105529785,0.04826123267412186,0.024470388889312744,0.000188178732059896,3.251562930017826e-06,0.00021940784063190222,3.710850477218628,10.0,0.0,0.0,0.0,0.0,0.0,32.766,32.766,0.281,0.337,32.766,2018.6629638671875,809.9495849609375,31.529897689819336,,False,
1783703845.2554185,2026-07-10T10:17:25,276866,20260710_101720,,,,,,ground_idle,,,,,,,,,False,0.023759951815009117,0.00408894894644618,1.0005285739898682,0.18782693147659302,0.19247737526893616,-0.13636013865470886,0.0,-2.0,57.0,24.0,0.024,0.0037985092494636774,-0.002431482309475541,0.024475501850247383,0.0038611150812357664,0.0008959713741205633,0.0004437669995240867,0.19389067590236664,1.2695794105529785,0.04826123267412186,0.024470388889312744,0.000188178732059896,3.251562930017826e-06,0.00021940784063190222,3.710850477218628,10.0,0.0,0.0,0.0,0.0,0.0,32.766,32.766,0.281,0.337,32.766,2018.6629638671875,809.9495849609375,31.529897689819336,,False,
1783703845.2656243,2026-07-10T10:17:25,276873,20260710_101720,,,,,,ground_idle,,,,,,,,,False,0.022959746420383453,0.004131511319428682,0.9989057779312134,-0.10190679132938385,0.22124944627285004,-0.01258937083184719,0.0,0.0,75.0,24.0,0.024,0.0037985092494636774,-0.002431482309475541,0.024475501850247383,0.0038611150812357664,0.0008959713741205633,0.0004437669995240867,0.1924225091934204,1.259355068206787,0.04687245190143585,0.024470388889312744,0.000188178732059896,3.251562930017826e-06,0.00021940784063190222,3.710850477218628,10.0,0.0,0.0,0.0,0.0,0.0,32.766,32.766,0.281,0.337,32.766,2018.6629638671875,809.9495849609375,31.529897689819336,,False,
1783703845.275798,2026-07-10T10:17:25,276886,20260710_101720,,,,,,ground_idle,,,,,,,,,False,0.023630470037460327,0.0025949841365218163,0.9979793429374695,-0.056915540248155594,0.07387921214103699,-0.0865618884563446,0.0,0.0,59.0,24.0,0.024,0.003879246534779668,-0.0024118777364492416,0.024484554305672646,0.004173649474978447,0.0010469253174960613,0.00039549858774989843,0.1924225091934204,1.259355068206787,0.04687245190143585,0.024470388889312744,0.000188178732059896,3.251562930017826e-06,0.00021940784063190222,3.710850477218628,10.0,0.0,0.0,0.0,0.0,0.0,32.766,32.766,0.281,0.337,32.766,2018.6629638671875,809.9495849609375,31.529897689819336,,False,
1783703845.2859702,2026-07-10T10:17:25,276893,20260710_101720,,,,,,ground_idle,,,,,,,,,False,0.02551410347223282,0.0027581730391830206,0.9982805252075195,0.1082795187830925,-0.0839172974228859,0.1478799283504486,0.0,1.0,52.0,27.0,0.027,0.003879246534779668,-0.0024118777364492416,0.024484554305672646,0.004173649474978447,0.0010469253174960613,0.00039549858774989843,0.19290116429328918,1.2535896301269531,0.047020040452480316,0.024470388889312744,0.000188178732059896,3.251562930017826e-06,0.00021940784063190222,3.710850477218628,10.0,0.0,0.0,0.0,0.0,0.0,32.766,32.766,0.281,0.337,32.766,2018.6629638671875,809.9495849609375,31.529897689819336,,False,
1783703845.2961593,2026-07-10T10:17:25,276906,20260710_101720,,,,,,ground_idle,,,,,,,,,False,0.025630053132772446,0.004127810709178448,0.9997861385345459,0.07012584060430527,-0.02535737119615078,0.25972703099250793,0.0,0.0,67.0,27.0,0.027,0.003547321306541562,-0.002418471034616232,0.02568812482059002,0.0025978516787290573,0.0007713140221312642,0.006540381349623203,0.19290116429328918,1.2535896301269531,0.047020040452480316,0.02568812482059002,0.006478776223957539,3.163266455885605e-06,0.00021602361812256277,3.710850477218628,10.0,0.0,0.0,0.0,0.0,0.0,32.766,32.766,0.28,32.766,2.833,2018.6629638671875,809.9495849609375,31.529897689819336,,False,
1783703845.3063738,2026-07-10T10:17:25,276913,20260710_101720,,,,,,ground_idle,,,,,,,,,False,0.025864630937576294,0.0033801975660026073,0.9998803734779358,0.034144625067710876,-0.2720186710357666,-0.12008199840784073,0.0,0.0,63.0,27.0,0.027,0.003547321306541562,-0.002418471034616232,0.02568812482059002,0.0025978516787290573,0.0007713140221312642,0.006540381349623203,0.19468922913074493,1.2651557922363281,0.04669366404414177,0.02568812482059002,0.006478776223957539,3.163266455885605e-06,0.00021602361812256277,3.710850477218628,10.0,0.0,0.0,0.0,0.0,0.0,32.766,32.766,0.28,32.766,2.833,2018.6629638671875,809.9495849609375,31.529897689819336,,False,
1783703845.3165567,2026-07-10T10:17:25,276926,20260710_101720,,,,,,ground_idle,,,,,,,,,False,0.02333827130496502,0.003644220996648073,1.0007373094558716,-0.01135981921106577,0.2418566644191742,0.0057953703217208385,0.0,0.0,66.0,27.0,0.027,0.0036065797321498394,-0.002402425277978182,0.02581971324980259,0.0032834638841450214,0.0008362103835679591,0.006652587093412876,0.19468922913074493,1.2651557922363281,0.04669366404414177,0.02568812482059002,0.006478776223957539,3.163266455885605e-06,0.00021602361812256277,3.710850477218628,10.0,0.0,0.0,0.0,0.0,0.0,32.766,32.766,0.28,32.766,2.833,2018.6629638671875,809.9495849609375,31.529897689819336,,False,
1783703845.326737,2026-07-10T10:17:25,276933,20260710_101720,,,,,,ground_idle,,,,,,,,,False,0.022972838953137398,0.002578752115368843,0.998572051525116,-0.07663580775260925,-0.1029006689786911,-0.005169600248336792,0.0,0.0,66.0,27.0,0.027,0.0036065797321498394,-0.002402425277978182,0.02581971324980259,0.0032834638841450214,0.0008362103835679591,0.006652587093412876,0.1953425109386444,1.2655593156814575,0.04713394492864609,0.02568812482059002,0.006478776223957539,3.163266455885605e-06,0.00021602361812256277,3.710850477218628,10.0,0.0,0.0,0.0,0.0,0.0,32.766,32.766,0.28,32.766,2.833,2018.6629638671875,809.9495849609375,31.529897689819336,,False,
1783703845.3387766,2026-07-10T10:17:25,276948,20260710_101720,,,,,,ground_idle,,,,,,,,,False,0.023122120648622513,0.004119353834539652,0.9994880557060242,0.02342088893055916,0.407394677400589,-0.04218703508377075,0.0,-255.0,74.0,27.0,0.027,0.003887130878865719,-0.0024115429259836674,0.026443753391504288,0.00449775718152523,0.0006379546830430627,0.009204103611409664,0.19533196091651917,1.2542976140975952,0.0489865243434906,0.02653568424284458,0.009077723138034344,3.280658120274893e-06,0.0002262341877212748,3.710850477218628,10.0,0.0,0.0,0.0,0.0,0.0,32.766,32.766,0.28,32.766,2.833,2018.6629638671875,809.9495849609375,31.529897689819336,,False,
1783703845.34897,2026-07-10T10:17:25,276953,20260710_101720,,,,,,ground_idle,,,,,,,,,False,0.021257130429148674,0.0035283793695271015,1.0014455318450928,-0.009179448708891869,-0.07825392484664917,-0.29239708185195923,0.0,2.0,69.0,27.0,0.027,0.003887130878865719,-0.0024115429259836674,0.026443753391504288,0.00449775718152523,0.0006379546830430627,0.009204103611409664,0.19533196091651917,1.2542976140975952,0.0489865243434906,0.02653568424284458,0.009077723138034344,3.280658120274893e-06,0.0002262341877212748,3.7161290645599365,10.0,0.0,0.0,0.0,0.0,0.0,32.766,32.766,0.28,32.766,2.833,2018.6083984375,809.9546508789062,31.53816795349121,,False,
1783703845.3591552,2026-07-10T10:17:25,276967,20260710_101720,,,,,,ground_idle,,,,,,,,,False,0.021884698420763016,0.0039129783399403095,0.9984504580497742,0.12999162077903748,-0.030709005892276764,-0.21155323088169098,0.0,0.0,72.0,27.0,0.027,0.0032207556068897247,-0.002410148736089468,0.026629488915205002,0.0007239599945023656,0.0006853615632280707,0.009283818304538727,0.19415055215358734,1.2796982526779175,0.04702390730381012,0.02653568424284458,0.009077723138034344,3.280658120274893e-06,0.0002262341877212748,3.7161290645599365,10.0,0.0,0.0,0.0,0.0,0.0,32.766,32.766,0.28,32.766,2.833,2018.6083984375,809.9546508789062,31.53816795349121,,False,
1783703845.369478,2026-07-10T10:17:25,276973,20260710_101720,,,,,,ground_idle,,,,,,,,,False,0.023572377860546112,0.00652571115642786,0.9999165534973145,0.07915329933166504,0.052836909890174866,-0.23108631372451782,0.0,-1.0,77.0,27.0,0.027,0.0032207556068897247,-0.002410148736089468,0.026629488915205002,0.0007239599945023656,0.0006853615632280707,0.009283818304538727,0.19415055215358734,1.2796982526779175,0.04702390730381012,0.02653568424284458,0.009077723138034344,3.280658120274893e-06,0.0002262341877212748,3.7161290645599365,10.0,0.0,0.0,0.0,0.0,0.0,32.766,32.766,0.28,32.766,2.833,2018.6083984375,809.9546508789062,31.53816795349121,,False,
1783703845.3798733,2026-07-10T10:17:25,276987,20260710_101720,,,,,,ground_idle,,,,,,,,,False,0.02351781167089939,0.003902601543813944,0.998146653175354,0.32832014560699463,0.29013592004776,0.15138877928256989,0.0,-1.0,77.0,27.0,0.027,0.0032087774015963078,-0.0024302485398948193,0.026814604178071022,0.0006254061008803546,0.0008493761997669935,0.009162596426904202,0.19570522010326385,1.27790105342865,0.04476916790008545,0.02653568424284458,0.009077723138034344,3.280658120274893e-06,0.0002262341877212748,3.7161290645599365,10.0,0.0,0.0,0.0,0.0,0.0,32.766,32.766,0.28,32.766,2.833,2018.6083984375,809.9546508789062,31.53816795349121,,False,
1783703845.3900547,2026-07-10T10:17:25,276999,20260710_101720,,,,,,ground_idle,,,,,,,,,False,0.024073269218206406,0.003051237901672721,1.0000334978103638,-0.21333563327789307,-0.30388471484184265,-0.22329168021678925,0.0,0.0,50.0,22.0,0.022,0.0032087774015963078,-0.0024302485398948193,0.026814604178071022,0.0006254061008803546,0.0008493761997669935,0.009162596426904202,0.19570522010326385,1.27790105342865,0.04476916790008545,0.02464102767407894,-0.003550183493643999,3.1869046779320342e-06,0.00021861745335627347,3.710850477218628,10.0,0.0,0.0,0.0,0.0,0.0,32.766,32.766,0.28,32.766,2.833,2018.6083984375,809.9546508789062,31.53816795349121,,False,
1783703845.4002306,2026-07-10T10:17:25,277011,20260710_101720,,,,,,ground_idle,,,,,,,,,False,0.02504383772611618,0.004202098585665226,1.0004677772521973,0.05742558464407921,0.1275092512369156,-0.11768710613250732,0.0,-2.0,65.0,22.0,0.022,0.003894712310284376,-0.0024196766316890717,0.024642130360007286,0.004376872442662716,0.000751746294554323,-0.0035083771217614412,0.19781917333602905,1.2490249872207642,0.04425197094678879,0.02464102767407894,-0.003550183493643999,3.1869046779320342e-06,0.00021861745335627347,3.710850477218628,10.0,0.0,0.0,0.0,0.0,0.0,0.28700000000000003,0.321,0.28300000000000003,0.34400000000000003,2.846,2018.6083984375,809.9546508789062,31.53816795349121,,False,
1783703845.4103913,2026-07-10T10:17:25,277021,20260710_101720,,,,,,ground_idle,,,,,,,,,False,0.023476948961615562,0.004807136487215757,0.9990513324737549,-0.16195540130138397,-0.021036578342318535,0.07920420914888382,0.0,1.0,65.0,22.0,0.022,0.003894712310284376,-0.0024196766316890717,0.024642130360007286,0.004376872442662716,0.000751746294554323,-0.0035083771217614412,0.19781917333602905,1.2490249872207642,0.04425197094678879,0.02464102767407894,-0.003550183493643999,3.1869046779320342e-06,0.00021861745335627347,3.710850477218628,10.0,0.0,0.0,0.0,0.0,0.0,0.28700000000000003,0.321,0.28300000000000003,0.34400000000000003,2.846,2018.6083984375,809.9546508789062,31.53816795349121,,False,
1783703845.4205494,2026-07-10T10:17:25,277031,20260710_101720,,,,,,ground_idle,,,,,,,,,False,0.023144206032156944,0.0030975774861872196,0.9978020191192627,0.09209979325532913,-0.023469187319278717,0.10492834448814392,0.0,0.0,72.0,22.0,0.022,0.003587073413655162,-0.002419263357296586,0.024575641378760338,0.002878886880353093,0.0006192362634465098,-0.003265290055423975,0.19937670230865479,1.2603026628494263,0.04449301213026047,0.02464102767407894,-0.003550183493643999,3.1869046779320342e-06,0.00021861745335627347,3.710850477218628,10.0,0.0,0.0,0.0,0.0,0.0,0.28700000000000003,0.321,0.28300000000000003,0.34400000000000003,2.846,2018.6083984375,809.9546508789062,31.53816795349121,,False,
1783703845.430704,2026-07-10T10:17:25,277041,20260710_101720,,,,,,ground_idle,,,,,,,,,False,0.025126315653324127,0.0032571188639849424,0.9979284405708313,0.14723478257656097,-0.3187442719936371,-0.09315841645002365,0.0,-1.0,78.0,22.0,0.022,0.003587073413655162,-0.002419263357296586,0.024575641378760338,0.002878886880353093,0.0006192362634465098,-0.003265290055423975,0.19937670230865479,1.2603026628494263,0.04449301213026047,0.02464102767407894,-0.003550183493643999,3.1869046779320342e-06,0.00021861745335627347,3.710850477218628,10.0,0.0,0.0,0.0,0.0,0.0,0.28700000000000003,0.321,0.28300000000000003,0.34400000000000003,2.846,2018.6083984375,809.9546508789062,31.53816795349121,,False,
1783703845.4408638,2026-07-10T10:17:25,277050,20260710_101720,,,,,,ground_idle,,,,,,,,,False,0.025126315653324127,0.0032571188639849424,0.9979284405708313,0.14723478257656097,-0.3187442719936371,-0.09315841645002365,0.0,0.0,66.0,27.0,0.027,0.003912711050361395,-0.002425315324217081,0.025593752041459084,0.004501333460211754,0.0005336052272468805,0.0022921105846762657,0.20135487616062164,1.2478657960891724,0.04666978865861893,0.025615988299250603,0.0020481355022639036,3.2992957130772993e-06,0.00022763689048588276,3.710850477218628,10.0,0.0,0.0,0.0,0.0,0.0,0.28700000000000003,0.321,0.28300000000000003,0.34400000000000003,2.846,2018.6083984375,809.9546508789062,31.53816795349121,,False,
1783703845.4510195,2026-07-10T10:17:25,277061,20260710_101720,,,,,,ground_idle,,,,,,,,,False,0.02216031588613987,0.0037388422060757875,0.9995124936103821,-0.06900845468044281,-0.17624583840370178,-0.10942494869232178,0.0,0.0,60.0,27.0,0.027,0.003912711050361395,-0.002425315324217081,0.025593752041459084,0.004501333460211754,0.0005336052272468805,0.0022921105846762657,0.20135487616062164,1.2478657960891724,0.04666978865861893,0.025615988299250603,0.0020481355022639036,3.2992957130772993e-06,0.00022763689048588276,3.710850477218628,10.0,0.0,0.0,0.0,0.0,0.0,0.28700000000000003,0.321,0.28300000000000003,0.34400000000000003,2.846,2018.6029052734375,809.9548950195312,31.544939041137695,,False,
1783703845.4611778,2026-07-10T10:17:25,277071,20260710_101720,,,,,,ground_idle,,,,,,,,,False,0.02241683565080166,0.003671130398288369,1.0007402896881104,0.2170673906803131,0.21521925926208496,-0.13847392797470093,0.0,0.0,71.0,27.0,0.027,0.004008121322840452,-0.002412425819784403,0.02563772350549698,0.004986349958926439,0.0008492168271914124,0.002191962907090783,0.20278435945510864,1.2486822605133057,0.04771876707673073,0.025615988299250603,0.0020481355022639036,3.2992957130772993e-06,0.00022763689048588276,3.710850477218628,10.0,0.0,0.0,0.0,0.0,0.0,0.28700000000000003,0.321,0.28300000000000003,0.34400000000000003,2.846,2018.6029052734375,809.9548950195312,31.544939041137695,,False,
1783703845.4713292,2026-07-10T10:17:25,277081,20260710_101720,,,,,,ground_idle,,,,,,,,,False,0.02092314139008522,0.0027361430693417788,1.0015618801116943,0.09081053733825684,0.2324073314666748,-0.017819542437791824,0.0,0.0,71.0,27.0,0.027,0.004008121322840452,-0.002412425819784403,0.02563772350549698,0.004986349958926439,0.0008492168271914124,0.002191962907090783,0.20278435945510864,1.2486822605133057,0.04771876707673073,0.025615988299250603,0.0020481355022639036,3.2992957130772993e-06,0.00022763689048588276,3.710850477218628,10.0,0.0,0.0,0.0,0.0,0.0,0.28700000000000003,0.321,0.28300000000000003,0.34400000000000003,2.846,2018.6029052734375,809.9548950195312,31.544939041137695,,False,
1783703845.481552,2026-07-10T10:17:25,277091,20260710_101720,,,,,,ground_idle,,,,,,,,,False,0.022077882662415504,0.004088010638952255,1.0021071434020996,0.17770715057849884,-0.13009630143642426,0.10304556041955948,0.0,1.0,57.0,27.0,0.027,0.00364367151632905,-0.002417934825643897,0.02568371780216694,0.002710257889702916,0.0007236971869133413,0.0022842776961624622,0.2020956575870514,1.2648547887802124,0.04607374966144562,0.025615988299250603,0.0020481355022639036,3.2992957130772993e-06,0.00022763689048588276,3.710850477218628,10.0,0.0,0.0,0.0,0.0,0.0,0.28700000000000003,0.321,0.28300000000000003,0.34400000000000003,2.846,2018.6029052734375,809.9548950195312,31.544939041137695,,False,
1783703845.4917228,2026-07-10T10:17:25,277101,20260710_101720,,,,,,ground_idle,,,,,,,,,False,0.02318441867828369,0.00450507365167141,0.9989640116691589,0.12657243013381958,-0.055462270975112915,-0.18381628394126892,0.0,1.0,50.0,23.0,0.023,0.00364367151632905,-0.002417934825643897,0.02568371780216694,0.002710257889702916,0.0007236971869133413,0.0022842776961624622,0.2020956575870514,1.2648547887802124,0.04607374966144562,0.024428527802228928,-0.004385426640510559,3.1982135624275543e-06,0.00021908832422923297,3.710850477218628,10.0,0.0,0.0,0.0,0.0,0.0,0.276,0.315,0.28200000000000003,32.766,2.866,2018.6029052734375,809.9548950195312,31.544939041137695,,False,
1783703845.5019014,2026-07-10T10:17:25,277111,20260710_101720,,,,,,ground_idle,,,,,,,,,False,0.02414165996015072,0.0034789475612342358,0.9996663331985474,0.1191098541021347,0.1755550056695938,-0.05806538090109825,0.0,-1.0,66.0,23.0,0.023,0.0036334586329758167,-0.0024277293123304844,0.024429205805063248,0.002380274934694171,0.0005633708206005394,-0.004360168240964413,0.20469997823238373,1.264674186706543,0.04746083542704582,0.024428527802228928,-0.004385426640510559,3.1982135624275543e-06,0.00021908832422923297,3.710850477218628,10.0,0.0,0.0,0.0,0.0,0.0,0.276,0.315,0.28200000000000003,32.766,2.866,2018.6029052734375,809.9548950195312,31.544939041137695,,False,
1783703845.512061,2026-07-10T10:17:25,277121,20260710_101720,,,,,,ground_idle,,,,,,,,,False,0.024307016283273697,0.004145132843405008,0.9998045563697815,-0.007264571730047464,-0.24642831087112427,0.1744339019060135,0.0,-1.0,62.0,23.0,0.023,0.0036334586329758167,-0.0024277293123304844,0.024429205805063248,0.002380274934694171,0.0005633708206005394,-0.004360168240964413,0.20469997823238373,1.264674186706543,0.04746083542704582,0.024428527802228928,-0.004385426640510559,3.1982135624275543e-06,0.00021908832422923297,3.710850477218628,10.0,0.0,0.0,0.0,0.0,0.0,0.276,0.315,0.28200000000000003,32.766,2.866,2018.6029052734375,809.9548950195312,31.544939041137695,,False,
1783703845.5222223,2026-07-10T10:17:25,277133,20260710_101720,,,,,,ground_idle,,,,,,,,,False,0.022076047956943512,0.004754357039928436,0.9995386004447937,0.022839156910777092,0.24805857241153717,0.002958000637590885,0.0,0.0,75.0,23.0,0.023,0.003996852785348892,-0.002428551437333226,0.02434121072292328,0.0042230975814163685,0.0005556163378059864,-0.0044087073765695095,0.20613354444503784,1.2476369142532349,0.04558325186371803,0.024428527802228928,-0.004385426640510559,3.1982135624275543e-06,0.00021908832422923297,3.710850477218628,10.0,0.0,0.0,0.0,0.0,0.0,0.276,0.315,0.28200000000000003,32.766,2.866,2018.6029052734375,809.9548950195312,31.544939041137695,,False,
1783703845.5323758,2026-07-10T10:17:25,277143,20260710_101720,,,,,,ground_idle,,,,,,,,,False,0.023591671139001846,0.004626034758985043,0.9990455508232117,-0.3406621515750885,-0.33274340629577637,0.09670277684926987,0.0,0.0,70.0,26.0,0.026,0.003996852785348892,-0.002428551437333226,0.02434121072292328,0.0042230975814163685,0.0005556163378059864,-0.0044087073765695095,0.20613354444503784,1.2476369142532349,0.04558325186371803,0.024428527802228928,-0.004385426640510559,3.1982135624275543e-06,0.00021908832422923297,3.710850477218628,10.0,0.0,0.0,0.0,0.0,0.0,0.276,0.315,0.28200000000000003,32.766,2.866,2018.6029052734375,809.9548950195312,31.544939041137695,,False,
1783703845.5425336,2026-07-10T10:17:25,277152,20260710_101720,,,,,,ground_idle,,,,,,,,,False,0.022770360112190247,0.0034946973901242018,1.000838279724121,-0.005990315228700638,-0.08627286553382874,0.08872907608747482,0.0,0.0,70.0,26.0,0.026,0.0040700421668589115,-0.002417919924482703,0.025006722658872604,0.004401534795761108,0.0007406747899949551,-0.00038252296508289874,0.20610494911670685,1.2439513206481934,0.04703555628657341,0.025002814829349518,-0.0005017512012273073,3.3030225949914893e-06,0.00022403670300263911,3.710850477218628,10.0,0.0,0.0,0.0,0.0,0.0,0.276,0.315,0.28200000000000003,32.766,2.866,2018.5972900390625,809.9554443359375,31.55097770690918,,False,
1783703845.55272,2026-07-10T10:17:25,277163,20260710_101720,,,,,,ground_idle,,,,,,,,,False,0.023160811513662338,0.0031107559334486723,0.9996394515037537,0.2154323011636734,-0.14521583914756775,-0.08687638491392136,0.0,0.0,71.0,26.0,0.026,0.0040700421668589115,-0.002417919924482703,0.025006722658872604,0.004401534795761108,0.0007406747899949551,-0.00038252296508289874,0.20610494911670685,1.2439513206481934,0.04703555628657341,0.025002814829349518,-0.0005017512012273073,3.3030225949914893e-06,0.00022403670300263911,3.710850477218628,10.0,0.0,0.0,0.0,0.0,0.0,0.276,0.315,0.28200000000000003,32.766,2.866,2018.5972900390625,809.9554443359375,31.55097770690918,,False,
1783703845.5628953,2026-07-10T10:17:25,277173,20260710_101720,,,,,,ground_idle,,,,,,,,,False,0.02339922823011875,0.0042264508083462715,0.998617947101593,0.050834257155656815,-0.05345936119556427,0.02350611239671707,0.0,2.0,71.0,26.0,0.026,0.004161604680120945,-0.0024016413372009993,0.0249993484467268,0.004702587611973286,0.0008075335645116866,-0.0002943625149782747,0.20362843573093414,1.243884563446045,0.04896489530801773,0.025002814829349518,-0.0005017512012273073,3.3030225949914893e-06,0.00022403670300263911,3.710850477218628,10.0,0.0,0.0,0.0,0.0,0.0,0.276,0.315,0.28200000000000003,32.766,2.866,2018.5972900390625,809.9554443359375,31.55097770690918,,False,
1783703845.5730495,2026-07-10T10:17:25,277183,20260710_101720,,,,,,ground_idle,,,,,,,,,False,0.025756550952792168,0.004060577601194382,0.9988374710083008,-0.015313718467950821,-0.2971751093864441,0.33825019001960754,0.0,-1.0,59.0,26.0,0.026,0.004161604680120945,-0.0024016413372009993,0.0249993484467268,0.004702587611973286,0.0008075335645116866,-0.0002943625149782747,0.20362843573093414,1.243884563446045,0.04896489530801773,0.025002814829349518,-0.0005017512012273073,3.3030225949914893e-06,0.00022403670300263911,3.710850477218628,10.0,0.0,0.0,0.0,0.0,0.0,0.276,0.315,0.28200000000000003,32.766,2.866,2018.5972900390625,809.9554443359375,31.55097770690918,,False,
1783703845.5832064,2026-07-10T10:17:25,277193,20260710_101720,,,,,,ground_idle,,,,,,,,,False,0.024713117629289627,0.0037865249905735254,1.0007203817367554,0.024246910586953163,0.19078466296195984,-0.09606251865625381,0.0,0.0,56.0,26.0,0.026,0.0036677445750683546,-0.0024186139926314354,0.024996459484100342,0.0022980854846537113,0.0007032857974991202,-0.0003792066709138453,0.20631270110607147,1.2636774778366089,0.048775192350149155,0.025002814829349518,-0.0005017512012273073,3.3030225949914893e-06,0.00022403670300263911,3.710850477218628,10.0,0.0,0.0,0.0,0.0,0.0,0.276,0.315,0.28200000000000003,32.766,2.866,2018.5972900390625,809.9554443359375,31.55097770690918,,False,
1783703845.5933633,2026-07-10T10:17:25,277203,20260710_101720,,,,,,ground_idle,,,,,,,,,False,0.02251456305384636,0.00411605229601264,0.9997338652610779,0.1525261253118515,-0.04788755998015404,-0.04821951314806938,0.0,0.0,67.0,26.0,0.026,0.0036677445750683546,-0.0024186139926314354,0.024996459484100342,0.0022980854846537113,0.0007032857974991202,-0.0003792066709138453,0.20631270110607147,1.2636774778366089,0.048775192350149155,0.02547345496714115,0.0021736249327659607,3.1949475669534877e-06,0.00021616289450321347,3.710850477218628,10.0,0.0,0.0,0.0,0.0,0.0,32.766,0.321,0.279,0.342,32.766,2018.5972900390625,809.9554443359375,31.55097770690918,,False,
1783703845.6035192,2026-07-10T10:17:25,277213,20260710_101720,,,,,,ground_idle,,,,,,,,,False,0.02334701083600521,0.003431675722822547,0.999199628829956,0.037517014890909195,-0.06573905050754547,-0.14939333498477936,2.0,-4.0,62.0,26.0,0.026,0.003711397759616375,-0.002404838800430298,0.02547345496714115,0.002882890636101365,0.0007830139948055148,0.0022405649069696665,0.2059965878725052,1.2634053230285645,0.04959578439593315,0.02547345496714115,0.0021736249327659607,3.1949475669534877e-06,0.00021616289450321347,3.710850477218628,10.0,0.0,0.0,0.0,0.0,0.0,32.766,0.321,0.279,0.342,32.766,2018.5972900390625,809.9554443359375,31.55097770690918,,False,
1783703845.613677,2026-07-10T10:17:25,277223,20260710_101720,,,,,,ground_idle,,,,,,,,,False,0.023608261719346046,0.002075435593724251,1.0002918243408203,-0.14456908404827118,0.027560457587242126,-0.1549341380596161,-1.0,4.0,72.0,26.0,0.026,0.003711397759616375,-0.002404838800430298,0.02547345496714115,0.002882890636101365,0.0007830139948055148,0.0022405649069696665,0.2059965878725052,1.2634053230285645,0.04959578439593315,0.02547345496714115,0.0021736249327659607,3.1949475669534877e-06,0.00021616289450321347,3.710850477218628,10.0,0.0,0.0,0.0,0.0,0.0,32.766,0.321,0.279,0.342,32.766,2018.5972900390625,809.9554443359375,31.55097770690918,,False,
1783703845.623878,2026-07-10T10:17:25,277233,20260710_101720,,,,,,ground_idle,,,,,,,,,False,0.024110762402415276,0.001765540917403996,0.9997029900550842,-0.04778513312339783,-0.07641372084617615,-0.41593292355537415,0.0,1.0,72.0,26.0,0.026,0.0036619012244045734,-0.002801224123686552,0.02553597092628479,0.0022617720533162355,-0.001101101515814662,0.002283420180901885,0.22060738503932953,1.2695848941802979,0.05056481808423996,0.02547345496714115,0.0021736249327659607,3.1949475669534877e-06,0.00021616289450321347,3.710850477218628,10.0,0.0,0.0,0.0,0.0,0.0,32.766,0.321,0.279,0.342,32.766,2018.5972900390625,809.9554443359375,31.55097770690918,,False,
1783703845.6341214,2026-07-10T10:17:25,277243,20260710_101720,,,,,,ground_idle,,,,,,,,,False,0.02200261689722538,0.0018313619075343013,0.9984135031700134,-0.13169841468334198,-0.20284929871559143,0.282755047082901,0.0,-1.0,57.0,22.0,0.022,0.0036619012244045734,-0.002801224123686552,0.02553597092628479,0.0022617720533162355,-0.001101101515814662,0.002283420180901885,0.22060738503932953,1.2695848941802979,0.05056481808423996,0.02547345496714115,0.0021736249327659607,3.1949475669534877e-06,0.00021616289450321347,3.710850477218628,10.0,0.0,0.0,0.0,0.0,0.0,32.766,0.321,0.279,0.342,32.766,2018.5972900390625,809.9554443359375,31.55097770690918,,False,
1783703845.644305,2026-07-10T10:17:25,277253,20260710_101720,,,,,,ground_idle,,,,,,,,,False,0.024529224261641502,0.0032753816340118647,0.9986667037010193,0.09950815141201019,0.005296698305755854,-0.15419168770313263,0.0,0.0,62.0,22.0,0.022,0.0036398929078131914,-0.0027666829992085695,0.02401060424745083,0.0023390536662191153,-0.0011637455318123102,-0.00607378501445055,0.21667201817035675,1.2702043056488037,0.04884276166558266,0.023949431255459785,-0.006206105928868055,3.2927773645496927e-06,0.00021799333626404405,3.710850477218628,10.0,0.0,0.0,0.0,0.0,0.0,32.766,0.321,0.279,0.342,32.766,2018.7451171875,809.9425048828125,31.552698135375977,,False,
1783703845.6544614,2026-07-10T10:17:25,277266,20260710_101720,,,,,,ground_idle,,,,,,,,,False,0.023971257731318474,0.003527190303429961,0.9993705749511719,0.007827798835933208,-0.3684895634651184,0.1850052922964096,-1.0,0.0,73.0,22.0,0.022,0.003633330576121807,-0.002412702888250351,0.023888085037469864,0.0023001034278422594,0.00044656405225396156,-0.006227876991033554,0.21667201817035675,1.2702043056488037,0.04884276166558266,0.023949431255459785,-0.006206105928868055,3.2927773645496927e-06,0.00021799333626404405,3.710850477218628,10.0,0.0,0.0,0.0,0.0,0.0,32.766,0.321,0.279,0.342,32.766,2018.7451171875,809.9425048828125,31.552698135375977,,False,
1783703845.6646159,2026-07-10T10:17:25,277273,20260710_101720,,,,,,ground_idle,,,,,,,,,False,0.02337319403886795,0.003442362416535616,1.00201416015625,-0.228499174118042,0.026592658832669258,-0.043425824493169785,0.0,-1.0,65.0,22.0,0.022,0.003633330576121807,-0.002412702888250351,0.023888085037469864,0.0023001034278422594,0.00044656405225396156,-0.006227876991033554,0.20170919597148895,1.2727292776107788,0.04949970170855522,0.023949431255459785,-0.006206105928868055,3.2927773645496927e-06,0.00021799333626404405,3.710850477218628,10.0,0.0,0.0,0.0,0.0,0.0,32.766,0.321,0.279,0.342,32.766,2018.7451171875,809.9425048828125,31.552698135375977,,False,
1783703845.6747808,2026-07-10T10:17:25,277286,20260710_101720,,,,,,ground_idle,,,,,,,,,False,0.024036621674895287,0.004914517048746347,1.0006961822509766,0.15176090598106384,0.025881268084049225,-0.2422000765800476,2.0,-3.0,61.0,22.0,0.022,0.004952358081936836,-0.003078850917518139,0.023763271048665047,0.008682450279593468,-0.002819340443238616,-0.006005667615681887,0.20170919597148895,1.2727292776107788,0.04949970170855522,0.023949431255459785,-0.006206105928868055,3.2927773645496927e-06,0.00021799333626404405,3.710850477218628,10.0,0.0,0.0,0.0,0.0,0.0,32.766,0.321,0.279,0.342,32.766,2018.7451171875,809.9425048828125,31.552698135375977,,False,
1783703845.6849384,2026-07-10T10:17:25,277293,20260710_101720,,,,,,ground_idle,,,,,,,,,False,0.023917242884635925,0.005627685692161322,0.9991386532783508,0.013483970426023006,-0.11250119656324387,0.022583402693271637,-1.0,5.0,52.0,26.0,0.026,0.004952358081936836,-0.003078850917518139,0.023763271048665047,0.008682450279593468,-0.002819340443238616,-0.006005667615681887,0.22299684584140778,1.226893424987793,0.05084710568189621,0.023949431255459785,-0.006206105928868055,3.2927773645496927e-06,0.00021799333626404405,3.710850477218628,10.0,0.0,0.0,0.0,0.0,0.0,32.766,0.321,0.279,0.342,32.766,2018.7451171875,809.9425048828125,31.552698135375977,,False,
1783703845.6951463,2026-07-10T10:17:25,277303,20260710_101720,,,,,,ground_idle,,,,,,,,,False,0.024522172287106514,0.00514577841386199,1.0008165836334229,0.19977718591690063,-0.09395433217287064,0.013046727515757084,0.0,-1.0,65.0,26.0,0.026,0.004952358081936836,-0.003078850917518139,0.023763271048665047,0.008682450279593468,-0.002819340443238616,-0.006005667615681887,0.22299684584140778,1.226893424987793,0.05084710568189621,0.02475656382739544,-0.00012530109961517155,3.178650104018743e-06,0.00021043360175099224,3.710850477218628,10.0,0.0,0.0,0.0,0.0,0.0,0.28300000000000003,0.323,0.276,0.34700000000000003,2.852,2018.7451171875,809.9425048828125,31.552698135375977,,False,
1783703845.7053392,2026-07-10T10:17:25,277313,20260710_101720,,,,,,ground_idle,,,,,,,,,False,0.02409106306731701,0.0025145725812762976,1.0001643896102905,-0.2187403291463852,0.04456905648112297,-0.1093510314822197,0.0,1.0,63.0,26.0,0.026,0.003560415469110012,-0.002758485497906804,0.024757446721196175,0.0018841339042410254,-0.000786543998401612,-0.00010952007869491354,0.20997434854507446,1.2788923978805542,0.049549832940101624,0.02475656382739544,-0.00012530109961517155,3.178650104018743e-06,0.00021043360175099224,3.710850477218628,10.0,0.0,0.0,0.0,0.0,0.0,0.28300000000000003,0.323,0.276,0.34700000000000003,2.852,2018.7451171875,809.9425048828125,31.552698135375977,,False,
1783703845.7154927,2026-07-10T10:17:25,277326,20260710_101720,,,,,,ground_idle,,,,,,,,,False,0.024277763441205025,0.003178996965289116,0.9999473690986633,0.2509782016277313,0.015869878232479095,0.030062643811106682,0.0,-1.0,77.0,26.0,0.026,0.003535442752763629,-0.0027528060600161552,0.02475743368268013,0.0019665826112031937,-0.0006565977819263935,2.5265864678658545e-05,0.20997434854507446,1.2788923978805542,0.049549832940101624,0.02475656382739544,-0.00012530109961517155,3.178650104018743e-06,0.00021043360175099224,3.710850477218628,10.0,0.0,0.0,0.0,0.0,0.0,0.28300000000000003,0.323,0.276,0.34700000000000003,2.852,2018.7451171875,809.9425048828125,31.552698135375977,,False,
1783703845.7256541,2026-07-10T10:17:25,277333,20260710_101720,,,,,,ground_idle,,,,,,,,,False,0.023672766983509064,0.0019163418328389525,0.9996903538703918,-0.004710045177489519,0.04680176451802254,0.20059433579444885,0.0,0.0,71.0,26.0,0.026,0.003535442752763629,-0.0027528060600161552,0.02475743368268013,0.0019665826112031937,-0.0006565977819263935,2.5265864678658545e-05,0.21057429909706116,1.2812777757644653,0.049228329211473465,0.02475656382739544,-0.00012530109961517155,3.178650104018743e-06,0.00021043360175099224,3.710850477218628,10.0,0.0,0.0,0.0,0.0,0.0,0.28300000000000003,0.323,0.276,0.34700000000000003,2.852,2018.7451171875,809.9425048828125,31.552698135375977,,False,
1783703845.735808,2026-07-10T10:17:25,277346,20260710_101720,,,,,,ground_idle,,,,,,,,,False,0.02223188802599907,0.002846679650247097,0.9975740313529968,0.08450348675251007,0.07757745683193207,0.014360059052705765,0.0,1.0,58.0,27.0,0.027,0.0032217956613749266,-0.0027608415111899376,0.025743070989847183,0.000504364084918052,-0.0008368836715817451,0.005195351783186197,0.21057429909706116,1.2812777757644653,0.049228329211473465,0.02475656382739544,-0.00012530109961517155,3.178650104018743e-06,0.00021043360175099224,3.710850477218628,10.0,0.0,0.0,0.0,0.0,0.0,0.28300000000000003,0.323,0.276,0.34700000000000003,2.852,2018.7451171875,809.9425048828125,31.552698135375977,,False,
1783703845.7459705,2026-07-10T10:17:25,277353,20260710_101720,,,,,,ground_idle,,,,,,,,,False,0.022298762574791908,0.0010098827769979835,1.0022081136703491,-0.002465959871187806,-0.23488596081733704,0.004752726294100285,0.0,-1.0,61.0,27.0,0.027,0.0032217956613749266,-0.0027608415111899376,0.025743070989847183,0.000504364084918052,-0.0008368836715817451,0.005195351783186197,0.2125067412853241,1.2911510467529297,0.04890581965446472,0.02579447813332081,0.005078306887298822,3.2680336516932584e-06,0.00021236512111499906,3.710850477218628,10.0,0.0,0.0,0.0,0.0,0.0,0.28300000000000003,0.323,0.276,0.34700000000000003,2.852,2018.706787109375,809.9456176757812,31.561025619506836,,False,
1783703845.7562594,2026-07-10T10:17:25,277367,20260710_101720,,,,,,ground_idle,,,,,,,,,False,0.02255123108625412,0.0010005889926105738,1.00203537940979,0.02697017602622509,-0.053444892168045044,0.02933565527200699,0.0,0.0,64.0,27.0,0.027,0.003532333532348275,-0.002766657155007124,0.025847412645816803,0.0018778552766889334,-0.0011128202313557267,0.0053597502410411835,0.21246309578418732,1.27938973903656,0.049425024539232254,0.02579447813332081,0.005078306887298822,3.2680336516932584e-06,0.00021236512111499906,3.710850477218628,10.0,0.0,0.0,0.0,0.0,0.0,0.28300000000000003,0.323,0.276,0.34700000000000003,2.852,2018.706787109375,809.9456176757812,31.561025619506836,,False,
1783703845.76644,2026-07-10T10:17:25,277373,20260710_101720,,,,,,ground_idle,,,,,,,,,False,0.024101627990603447,0.004383017309010029,1.0029078722000122,-0.010575704276561737,0.11971979588270187,-0.02276092953979969,0.0,0.0,64.0,27.0,0.027,0.003532333532348275,-0.002766657155007124,0.025847412645816803,0.0018778552766889334,-0.0011128202313557267,0.0053597502410411835,0.21246309578418732,1.27938973903656,0.049425024539232254,0.02579447813332081,0.005078306887298822,3.2680336516932584e-06,0.00021236512111499906,3.710850477218628,10.0,0.0,0.0,0.0,0.0,0.0,0.28300000000000003,0.323,0.276,0.34700000000000003,2.852,2018.706787109375,809.9456176757812,31.561025619506836,,False,
1783703845.7766502,2026-07-10T10:17:25,277387,20260710_101720,,,,,,ground_idle,,,,,,,,,False,0.023023094981908798,0.004004210699349642,0.9998907446861267,0.18661867082118988,-0.21357545256614685,-0.002140812575817108,0.0,0.0,60.0,27.0,0.027,0.003571251640096307,-0.002791895065456629,0.02595970407128334,0.002072727307677269,-0.0012580975890159607,0.005895528011023998,0.21328043937683105,1.2783470153808594,0.050792161375284195,0.02579447813332081,0.005078306887298822,3.2680336516932584e-06,0.00021236512111499906,3.710850477218628,10.0,0.0,0.0,0.0,0.0,0.0,0.28300000000000003,0.323,0.276,0.34700000000000003,2.852,2018.706787109375,809.9456176757812,31.561025619506836,,False,
1783703845.786826,2026-07-10T10:17:25,277393,20260710_101720,,,,,,ground_idle,,,,,,,,,False,0.023716678842902184,0.0035308946389704943,1.0007591247558594,0.24609147012233734,-0.2204374372959137,0.16291309893131256,0.0,0.0,60.0,26.0,0.026,0.003571251640096307,-0.002791895065456629,0.02595970407128334,0.002072727307677269,-0.0012580975890159607,0.005895528011023998,0.21328043937683105,1.2783470153808594,0.050792161375284195,0.02579447813332081,0.005078306887298822,3.2680336516932584e-06,0.00021236512111499906,3.710850477218628,10.0,0.0,0.0,0.0,0.0,0.0,0.28300000000000003,0.323,0.276,0.34700000000000003,2.852,2018.706787109375,809.9456176757812,31.561025619506836,,False,
1783703845.7969897,2026-07-10T10:17:25,277407,20260710_101720,,,,,,ground_idle,,,,,,,,,False,0.025346463546156883,0.004938778467476368,1.0007503032684326,-0.08865942060947418,-0.2881554961204529,0.07595688104629517,0.0,-1.0,58.0,26.0,0.026,0.003911017440259457,-0.002793680178001523,0.026069683954119682,0.0038001490756869316,-0.0011218091240152717,0.005995854269713163,0.21447168290615082,1.2675955295562744,0.050670817494392395,0.02606973610818386,0.005943659693002701,3.1554175166093046e-06,0.00020730159303639084,3.710850477218628,10.0,0.0,0.0,0.0,0.0,0.0,0.277,32.766,0.281,0.342,2.836,2018.706787109375,809.9456176757812,31.561025619506836,,False,
1783703845.8072653,2026-07-10T10:17:25,277413,20260710_101720,,,,,,ground_idle,,,,,,,,,False,0.025444479659199715,0.004583165515214205,1.001013159751892,0.06452078372240067,0.03257262706756592,-0.22966748476028442,0.0,-254.0,66.0,26.0,0.026,0.003911017440259457,-0.002793680178001523,0.026069683954119682,0.0038001490756869316,-0.0011218091240152717,0.005995854269713163,0.21447168290615082,1.2675955295562744,0.050670817494392395,0.02606973610818386,0.005943659693002701,3.1554175166093046e-06,0.00020730159303639084,3.710850477218628,10.0,0.0,0.0,0.0,0.0,0.0,0.277,32.766,0.281,0.342,2.836,2018.706787109375,809.9456176757812,31.561025619506836,,False,
1783703845.81744,2026-07-10T10:17:25,277427,20260710_101720,,,,,,ground_idle,,,,,,,,,False,0.024145741015672684,0.005751000251621008,0.9988600015640259,-0.07796158641576767,0.10075309127569199,0.24778389930725098,0.0,-1.0,64.0,26.0,0.026,0.0035329749807715416,-0.0027888561598956585,0.026194121688604355,0.0022148338612169027,-0.0008004094706848264,0.0062261903658509254,0.21144890785217285,1.2819257974624634,0.05127725377678871,0.02606973610818386,0.005943659693002701,3.1554175166093046e-06,0.00020730159303639084,3.710850477218628,10.0,0.0,0.0,0.0,0.0,0.0,0.277,32.766,0.281,0.342,2.836,2018.706787109375,809.9456176757812,31.561025619506836,,False,
1783703845.8276055,2026-07-10T10:17:25,277433,20260710_101720,,,,,,ground_idle,,,,,,,,,False,0.024726612493395805,0.0038811482954770327,0.9992395639419556,0.07940111309289932,-0.22803975641727448,-0.2457408308982849,0.0,0.0,70.0,26.0,0.026,0.0035329749807715416,-0.0027888561598956585,0.026194121688604355,0.0022148338612169027,-0.0008004094706848264,0.0062261903658509254,0.21144890785217285,1.2819257974624634,0.05127725377678871,0.02606973610818386,0.005943659693002701,3.1554175166093046e-06,0.00020730159303639084,3.710850477218628,10.0,0.0,0.0,0.0,0.0,0.0,0.277,32.766,0.281,0.342,2.836,2018.706787109375,809.9456176757812,31.561025619506836,,False,
1783703845.837767,2026-07-10T10:17:25,277448,20260710_101720,,,,,,ground_idle,,,,,,,,,False,0.023791171610355377,0.002059465739876032,1.0003962516784668,0.12867869436740875,0.3566361963748932,-0.07306624948978424,0.0,0.0,61.0,27.0,0.027,0.003574561793357134,-0.002804078394547105,0.02664230763912201,0.002587398048490286,-0.0006764648132957518,0.007830839604139328,0.21028144657611847,1.2793818712234497,0.05150654539465904,0.02672101929783821,0.007852367125451565,3.2483947052242e-06,0.0002125517639797181,3.710850477218628,10.0,0.0,0.0,0.0,0.0,0.0,0.277,32.766,0.281,0.342,2.836,2018.706787109375,809.9456176757812,31.561025619506836,,False,
1783703845.8479283,2026-07-10T10:17:25,277453,20260710_101720,,,,,,ground_idle,,,,,,,,,False,0.023007523268461227,0.003464851761236787,1.001025915145874,-0.15975934267044067,0.19902558624744415,-0.059441618621349335,0.0,0.0,61.0,27.0,0.027,0.003574561793357134,-0.002804078394547105,0.02664230763912201,0.002587398048490286,-0.0006764648132957518,0.007830839604139328,0.21028144657611847,1.2793818712234497,0.05150654539465904,0.02672101929783821,0.007852367125451565,3.2483947052242e-06,0.0002125517639797181,3.710850477218628,10.0,0.0,0.0,0.0,0.0,0.0,0.277,32.766,0.281,0.342,2.836,2018.5972900390625,809.9556274414062,31.567522048950195,,False,
1783703845.8581266,2026-07-10T10:17:25,277467,20260710_101720,,,,,,ground_idle,,,,,,,,,False,0.023789849132299423,0.0044591715559363365,0.9996671676635742,0.3366403877735138,-0.1230468600988388,-0.12199916690587997,0.0,0.0,64.0,27.0,0.027,0.0036287358961999416,-0.0028198035433888435,0.02680051326751709,0.0028030932880938053,-0.0008475003996863961,0.007987107150256634,0.2109593152999878,1.2723604440689087,0.050500284880399704,0.02672101929783821,0.007852367125451565,3.2483947052242e-06,0.0002125517639797181,3.710850477218628,10.0,0.0,0.0,0.0,0.0,0.0,0.277,32.766,0.281,0.342,2.836,2018.5972900390625,809.9556274414062,31.567522048950195,,False,
1783703845.8682857,2026-07-10T10:17:25,277473,20260710_101720,,,,,,ground_idle,,,,,,,,,False,0.025272564962506294,0.004528712946921587,0.9988557696342468,0.15061326324939728,-0.027705715969204903,-0.12450432777404785,0.0,0.0,62.0,27.0,0.027,0.0036287358961999416,-0.0028198035433888435,0.02680051326751709,0.0028030932880938053,-0.0008475003996863961,0.007987107150256634,0.2109593152999878,1.2723604440689087,0.050500284880399704,0.02672101929783821,0.007852367125451565,3.2483947052242e-06,0.0002125517639797181,3.710850477218628,10.0,0.0,0.0,0.0,0.0,0.0,0.277,32.766,0.281,0.342,2.836,2018.5972900390625,809.9556274414062,31.567522048950195,,False,
1783703845.8784528,2026-07-10T10:17:25,277487,20260710_101720,,,,,,ground_idle,,,,,,,,,False,0.025282323360443115,0.002849352778866887,0.9997006058692932,0.04397362843155861,-0.22024480998516083,-0.1465027928352356,0.0,0.0,74.0,27.0,0.027,0.0036887763999402523,-0.002835499122738838,0.026959886774420738,0.0032594287768006325,-0.0007363387267105281,0.007913629524409771,0.21289965510368347,1.2724039554595947,0.04966935142874718,0.02672101929783821,0.007852367125451565,3.2483947052242e-06,0.0002125517639797181,3.710850477218628,10.0,0.0,0.0,0.0,0.0,0.0,0.277,32.766,0.281,0.342,2.836,2018.5972900390625,809.9556274414062,31.567522048950195,,False,
1783703845.8886535,2026-07-10T10:17:25,277499,20260710_101720,,,,,,ground_idle,,,,,,,,,False,0.021991919726133347,0.004605485126376152,0.9997679591178894,0.046584803611040115,-0.11644682288169861,0.019640076905488968,0.0,0.0,54.0,24.0,0.024,0.0036887763999402523,-0.002835499122738838,0.026959886774420738,0.0032594287768006325,-0.0007363387267105281,0.007913629524409771,0.21289965510368347,1.2724039554595947,0.04966935142874718,0.02567632682621479,0.00022996305779088289,3.145979235341656e-06,0.00020994451188016683,3.710850477218628,10.0,0.0,0.0,0.0,0.0,0.0,0.277,32.766,0.281,0.342,2.836,2018.5972900390625,809.9556274414062,31.567522048950195,,False,
1783703845.8988376,2026-07-10T10:17:25,277507,20260710_101720,,,,,,ground_idle,,,,,,,,,False,0.024047836661338806,0.004078826401382685,0.999525785446167,0.11761364340782166,-0.0951339527964592,0.07873504608869553,0.0,0.0,57.0,24.0,0.024,0.003787013003602624,-0.002844789531081915,0.02567632682621479,0.0036474112421274185,-0.0006987365777604282,0.0003085189964622259,0.21293029189109802,1.2740734815597534,0.048945602029561996,0.02567632682621479,0.00022996305779088289,3.145979235341656e-06,0.00020994451188016683,3.710850477218628,10.0,0.0,0.0,0.0,0.0,0.0,32.766,32.766,0.28,32.766,2.841,2018.5972900390625,809.9556274414062,31.567522048950195,,False,
1783703845.909023,2026-07-10T10:17:25,277513,20260710_101720,,,,,,ground_idle,,,,,,,,,False,0.024949626997113228,0.005188079085201025,1.0004291534423828,-0.06295415759086609,-0.0019182311370968819,0.04919571056962013,0.0,0.0,65.0,24.0,0.024,0.003787013003602624,-0.002844789531081915,0.02567632682621479,0.0036474112421274185,-0.0006987365777604282,0.0003085189964622259,0.21293029189109802,1.2740734815597534,0.048945602029561996,0.02567632682621479,0.00022996305779088289,3.145979235341656e-06,0.00020994451188016683,3.710850477218628,10.0,0.0,0.0,0.0,0.0,0.0,32.766,32.766,0.28,32.766,2.841,2018.5972900390625,809.9556274414062,31.567522048950195,,False,
1783703845.9192767,2026-07-10T10:17:25,277531,20260710_101720,,,,,,ground_idle,,,,,,,,,False,0.02299593575298786,0.004205703269690275,1.0000951290130615,0.23344236612319946,-0.04739850014448166,0.16806916892528534,0.0,0.0,65.0,24.0,0.024,0.0038643255829811096,-0.0028573868330568075,0.025683315470814705,0.004103995393961668,-0.0005131559446454048,0.00043558533070608974,0.21225951611995697,1.2726432085037231,0.048879027366638184,0.02567632682621479,0.00022996305779088289,3.145979235341656e-06,0.00020994451188016683,3.710850477218628,10.0,0.0,0.0,0.0,0.0,0.0,32.766,32.766,0.28,32.766,2.841,2018.5972900390625,809.9556274414062,31.567522048950195,,False,
1783703845.9294953,2026-07-10T10:17:25,277541,20260710_101720,,,,,,ground_idle,,,,,,,,,False,0.023896031081676483,0.00413935724645853,1.0006179809570312,-0.026800455525517464,-0.06943660229444504,-0.03634095564484596,0.0,0.0,67.0,24.0,0.024,0.0038643255829811096,-0.0028573868330568075,0.025683315470814705,0.004103995393961668,-0.0005131559446454048,0.00043558533070608974,0.21225951611995697,1.2726432085037231,0.048879027366638184,0.02567632682621479,0.00022996305779088289,3.145979235341656e-06,0.00020994451188016683,3.710850477218628,10.0,0.0,0.0,0.0,0.0,0.0,32.766,32.766,0.28,32.766,2.841,2018.5972900390625,809.9556274414062,31.567522048950195,,False,
1783703845.9396594,2026-07-10T10:17:25,277549,20260710_101720,,,,,,ground_idle,,,,,,,,,False,0.023896031081676483,0.00413935724645853,1.0006179809570312,-0.026800455525517464,-0.06943660229444504,-0.03634095564484596,0.0,0.0,51.0,24.0,0.024,0.003963849972933531,-0.002864009700715542,0.024956561625003815,0.004391393158584833,-0.0004116034251637757,-0.0033028642646968365,0.21348728239536285,1.2715173959732056,0.04792046546936035,0.024923956021666527,-0.0033166806679219007,3.254515604567132e-06,0.0002223741466877982,3.710850477218628,10.0,0.0,0.0,0.0,0.0,0.0,32.766,32.766,0.28,32.766,2.841,2018.5972900390625,809.9556274414062,31.567522048950195,,False,
1783703845.9498208,2026-07-10T10:17:25,277561,20260710_101720,,,,,,ground_idle,,,,,,,,,False,0.02384193241596222,0.0041381483897566795,0.9999061822891235,0.18448284268379211,0.2177431881427765,0.03532992675900459,0.0,0.0,51.0,24.0,0.024,0.003963849972933531,-0.002864009700715542,0.024956561625003815,0.004391393158584833,-0.0004116034251637757,-0.0033028642646968365,0.21348728239536285,1.2715173959732056,0.04792046546936035,0.024923956021666527,-0.0033166806679219007,3.254515604567132e-06,0.0002223741466877982,3.710850477218628,10.0,0.0,0.0,0.0,0.0,0.0,32.766,32.766,0.28,32.766,2.841,2018.5482177734375,809.9600830078125,31.5747127532959,,False,
1783703845.9599755,2026-07-10T10:17:25,277571,20260710_101720,,,,,,ground_idle,,,,,,,,,False,0.022023305296897888,0.0022650628816336393,1.000404715538025,0.026201793923974037,-0.32302552461624146,0.22666318714618683,0.0,0.0,65.0,24.0,0.024,0.004054832272231579,-0.0028708046302199364,0.024892007932066917,0.004700260236859322,-0.00020829483401030302,-0.003171198768541217,0.21531201899051666,1.2685699462890625,0.04615739360451698,0.024923956021666527,-0.0033166806679219007,3.254515604567132e-06,0.0002223741466877982,3.710850477218628,10.0,0.0,0.0,0.0,0.0,0.0,32.766,32.766,0.28,32.766,2.841,2018.5482177734375,809.9600830078125,31.5747127532959,,False,
1783703845.9701812,2026-07-10T10:17:25,277581,20260710_101720,,,,,,ground_idle,,,,,,,,,False,0.022839313372969627,0.0008036675862967968,1.0012249946594238,-0.01416139304637909,-0.05680863931775093,-0.03977927938103676,0.0,0.0,64.0,24.0,0.024,0.004054832272231579,-0.0028708046302199364,0.024892007932066917,0.004700260236859322,-0.00020829483401030302,-0.003171198768541217,0.21531201899051666,1.2685699462890625,0.04615739360451698,0.024923956021666527,-0.0033166806679219007,3.254515604567132e-06,0.0002223741466877982,3.710850477218628,10.0,0.0,0.0,0.0,0.0,0.0,32.766,32.766,0.28,32.766,2.841,2018.5482177734375,809.9600830078125,31.5747127532959,,False,
1783703845.9803808,2026-07-10T10:17:25,277591,20260710_101720,,,,,,ground_idle,,,,,,,,,False,0.022639552131295204,0.0038302764296531677,0.9985671043395996,0.40870243310928345,0.35184311866760254,0.052009619772434235,0.0,-1.0,75.0,24.0,0.024,0.004622688516974449,-0.0028719892725348473,0.024828536435961723,0.006928318180143833,-0.00036228407407179475,-0.0030783615075051785,0.21609625220298767,1.2509008646011353,0.04639096558094025,0.024923956021666527,-0.0033166806679219007,3.254515604567132e-06,0.0002223741466877982,3.710850477218628,10.0,0.0,0.0,0.0,0.0,0.0,32.766,32.766,0.28,32.766,2.841,2018.5482177734375,809.9600830078125,31.5747127532959,,False,
1783703845.990534,2026-07-10T10:17:25,277601,20260710_101720,,,,,,ground_idle,,,,,,,,,False,0.025463052093982697,0.002892173593863845,0.9985912442207336,0.12333663552999496,0.004625711124390364,0.3513413965702057,0.0,2.0,56.0,23.0,0.023,0.004622688516974449,-0.0028719892725348473,0.024828536435961723,0.006928318180143833,-0.00036228407407179475,-0.0030783615075051785,0.21609625220298767,1.2509008646011353,0.04639096558094025,0.023912472650408745,-0.007729466538876295,3.1676149774284568e-06,0.0002183220931328833,3.710850477218628,10.0,0.0,0.0,0.0,0.0,0.0,0.28,32.766,0.281,32.766,32.766,2018.5482177734375,809.9600830078125,31.5747127532959,,False,
1783703846.0006943,2026-07-10T10:17:26,277611,20260710_101720,,,,,,ground_idle,,,,,,,,,False,0.02628687210381031,0.004940497223287821,0.9996342062950134,0.17174722254276276,0.1274469643831253,-0.0833439752459526,0.0,-2.0,61.0,23.0,0.023,0.004428689368069172,-0.0028597938362509012,0.023913802579045296,0.005827327724546194,-0.0004691931826528162,-0.0076879700645804405,0.2175019234418869,1.2555450201034546,0.04538517817854881,0.023912472650408745,-0.007729466538876295,3.1676149774284568e-06,0.0002183220931328833,3.710850477218628,10.0,0.0,0.0,0.0,0.0,0.0,0.28,32.766,0.281,32.766,32.766,2018.5482177734375,809.9600830078125,31.5747127532959,,False,
1783703846.0108497,2026-07-10T10:17:26,277621,20260710_101720,,,,,,ground_idle,,,,,,,,,False,0.025576625019311905,0.0034907441586256027,0.9995318651199341,-0.11161205917596817,-0.408525288105011,0.07274957001209259,0.0,1.0,72.0,23.0,0.023,0.004428689368069172,-0.0028597938362509012,0.023913802579045296,0.005827327724546194,-0.0004691931826528162,-0.0076879700645804405,0.2175019234418869,1.2555450201034546,0.04538517817854881,0.023912472650408745,-0.007729466538876295,3.1676149774284568e-06,0.0002183220931328833,3.710850477218628,10.0,0.0,0.0,0.0,0.0,0.0,0.28,32.766,0.281,32.766,32.766,2018.5482177734375,809.9600830078125,31.5747127532959,,False,
1783703846.0210102,2026-07-10T10:17:26,277631,20260710_101720,,,,,,ground_idle,,,,,,,,,False,0.024010414257645607,0.004794043023139238,0.9991315603256226,-0.1420595645904541,0.030825048685073853,0.09568463265895844,0.0,0.0,67.0,23.0,0.023,0.003877532435581088,-0.00286347814835608,0.02375994622707367,0.0037404694594442844,-0.00045620783930644393,-0.0077922167256474495,0.21769192814826965,1.2742987871170044,0.047068431973457336,0.023912472650408745,-0.007729466538876295,3.1676149774284568e-06,0.0002183220931328833,3.710850477218628,10.0,0.0,0.0,0.0,0.0,0.0,0.28,32.766,0.281,32.766,32.766,2018.5482177734375,809.9600830078125,31.5747127532959,,False,
1783703846.0315654,2026-07-10T10:17:26,277643,20260710_101720,,,,,,arming,,,,,,,,,False,0.022115854546427727,0.0028222352266311646,0.9985592365264893,-0.07121603935956955,0.023481113836169243,0.06996824592351913,0.0,-1.0,61.0,26.0,0.026,0.003877532435581088,-0.00286347814835608,0.02375994622707367,0.0037404694594442844,-0.00045620783930644393,-0.0077922167256474495,0.21769192814826965,1.2742987871170044,0.047068431973457336,0.023912472650408745,-0.007729466538876295,3.1676149774284568e-06,0.0002183220931328833,3.710850477218628,10.0,0.0,0.0,0.0,0.0,0.0,0.28,32.766,0.281,32.766,32.766,2018.5482177734375,809.9600830078125,31.5747127532959,,False,
1783703846.0417297,2026-07-10T10:17:26,277649,20260710_101720,,,,,,arming,,,,,,,,,False,0.022115854546427727,0.0028222352266311646,0.9985592365264893,-0.07121603935956955,0.023481113836169243,0.06996824592351913,0.0,-1.0,61.0,26.0,0.026,0.003781076753512025,-0.0028501481283456087,0.024624967947602272,0.0034557953476905823,-0.0003276387869846076,-0.00234415614977479,0.21626204252243042,1.278151035308838,0.04756370559334755,0.024601172655820847,-0.002489586593583226,3.28819237438438e-06,0.00022784864995628595,3.710850477218628,10.0,0.0,0.0,0.0,0.0,0.0,0.28,32.766,0.281,32.766,32.766,2018.5482177734375,809.9600830078125,31.5747127532959,,False,
1783703846.05191,2026-07-10T10:17:26,277663,20260710_101720,,,,,,arming,,,,,,,,,False,0.023026106879115105,0.004183642100542784,1.0007030963897705,-0.249247744679451,-0.04193590208888054,0.07395220547914505,1.0,-3.0,66.0,26.0,0.026,0.003781076753512025,-0.0028501481283456087,0.024624967947602272,0.0034557953476905823,-0.0003276387869846076,-0.00234415614977479,0.21626204252243042,1.278151035308838,0.04756370559334755,0.024601172655820847,-0.002489586593583226,3.28819237438438e-06,0.00022784864995628595,3.710850477218628,10.0,0.0,0.0,0.0,0.0,0.0,0.28,32.766,0.281,32.766,32.766,2018.7122802734375,809.945068359375,31.576580047607422,,False,
1783703846.0620885,2026-07-10T10:17:26,277671,20260710_101720,,,,,,arming,,,,,,,,,False,0.023563159629702568,0.00407452741637826,1.0017739534378052,-0.07823650538921356,0.1875181496143341,0.1657721996307373,1.0,-3.0,66.0,26.0,0.026,0.005417474079877138,-0.0032583014108240604,0.024574078619480133,0.010376039892435074,-0.0022571375593543053,-0.0024116202257573605,0.23072895407676697,1.2242863178253174,0.04940415546298027,0.024601172655820847,-0.002489586593583226,3.28819237438438e-06,0.00022784864995628595,3.710850477218628,10.0,0.0,0.0,0.0,0.0,0.0,0.28,32.766,0.281,32.766,32.766,2018.7122802734375,809.945068359375,31.576580047607422,,False,
1783703846.0723212,2026-07-10T10:17:26,277683,20260710_101720,,,,,,arming,,,,,,,,,False,0.025015002116560936,0.0025428736116737127,1.000144600868225,0.1238127052783966,0.18557681143283844,0.23147815465927124,-1.0,0.0,74.0,26.0,0.026,0.005417474079877138,-0.0032583014108240604,0.024574078619480133,0.010376039892435074,-0.0022571375593543053,-0.0024116202257573605,0.23072895407676697,1.2242863178253174,0.04940415546298027,0.024601172655820847,-0.002489586593583226,3.28819237438438e-06,0.00022784864995628595,3.710850477218628,10.0,0.0,0.0,0.0,0.0,0.0,0.28,32.766,0.281,32.766,32.766,2018.7122802734375,809.945068359375,31.576580047607422,,False,
1783703846.0825028,2026-07-10T10:17:26,277693,20260710_101720,,,,,,arming,,,,,,,,,False,0.022362690418958664,0.003376881591975689,0.9994044303894043,0.2798536717891693,0.14441844820976257,0.019290534779429436,0.0,-1.0,55.0,24.0,0.024,0.0033115262631326914,-0.0028430901002138853,0.024552222341299057,0.00057867297437042,-0.00019187886209692806,-0.002036379650235176,0.21494543552398682,1.2941341400146484,0.050034552812576294,0.024601172655820847,-0.002489586593583226,3.28819237438438e-06,0.00022784864995628595,3.710850477218628,10.0,0.0,0.0,0.0,0.0,0.0,0.28,32.766,0.281,32.766,32.766,2018.7122802734375,809.945068359375,31.576580047607422,,False,
1783703846.0926785,2026-07-10T10:17:26,277703,20260710_101720,,,,,,arming,,,,,,,,,False,0.024317258968949318,0.004132263362407684,0.9993948936462402,-0.15429826080799103,-0.22833189368247986,-0.0846068412065506,0.0,-1.0,72.0,24.0,0.024,0.0033115262631326914,-0.0028430901002138853,0.024552222341299057,0.00057867297437042,-0.00019187886209692806,-0.002036379650235176,0.21494543552398682,1.2941341400146484,0.050034552812576294,0.024256767705082893,-0.0034515918232500553,3.1957656574377324e-06,0.0002209659432992339,3.7161290645599365,10.0,0.0,0.0,0.0,0.0,0.0,32.766,0.321,0.277,0.337,2.86,2018.7122802734375,809.945068359375,31.576580047607422,,False,
1783703846.1028495,2026-07-10T10:17:26,277713,20260710_101720,,,,,,arming,,,,,,,,,False,0.02426520362496376,0.004556587897241116,0.9997984766960144,-0.010425960645079613,0.28097137808799744,0.011612636037170887,0.0,0.0,72.0,24.0,0.024,0.0040769497863948345,-0.002842225367203355,0.024256939068436623,0.0040404703468084335,-0.00025097542675212026,-0.0033918998669832945,0.2166568636894226,1.2666465044021606,0.0508168563246727,0.024256767705082893,-0.0034515918232500553,3.1957656574377324e-06,0.0002209659432992339,3.7161290645599365,10.0,0.0,0.0,0.0,0.0,0.0,32.766,0.321,0.277,0.337,2.86,2018.7122802734375,809.945068359375,31.576580047607422,,False,
1783703846.1130369,2026-07-10T10:17:26,277723,20260710_101720,,,,,,arming,,,,,,,,,False,0.025088390335440636,0.004487630911171436,0.9997047781944275,-0.09104882180690765,-0.2162301391363144,0.10266387462615967,0.0,0.0,63.0,24.0,0.024,0.0040769497863948345,-0.002842225367203355,0.024256939068436623,0.0040404703468084335,-0.00025097542675212026,-0.0033918998669832945,0.2166568636894226,1.2666465044021606,0.0508168563246727,0.024256767705082893,-0.0034515918232500553,3.1957656574377324e-06,0.0002209659432992339,3.7161290645599365,10.0,0.0,0.0,0.0,0.0,0.0,32.766,0.321,0.277,0.337,2.86,2018.7122802734375,809.945068359375,31.576580047607422,,False,
1783703846.1232271,2026-07-10T10:17:26,277733,20260710_101720,,,,,,arming,,,,,,,,,False,0.02333979867398739,0.005450872704386711,0.9983806014060974,0.08285759389400482,0.0340404137969017,0.30232295393943787,0.0,1.0,61.0,24.0,0.024,0.004161452408879995,-0.002846178598701954,0.02418854646384716,0.004455064423382282,-0.0001217589306179434,-0.003449327079579234,0.21540184319019318,1.2655766010284424,0.049474962055683136,0.024256767705082893,-0.0034515918232500553,3.1957656574377324e-06,0.0002209659432992339,3.7161290645599365,10.0,0.0,0.0,0.0,0.0,0.0,32.766,0.321,0.277,0.337,2.86,2018.7122802734375,809.945068359375,31.576580047607422,,False,
1783703846.133423,2026-07-10T10:17:26,277743,20260710_101720,,,,,,arming,,,,,,,,,False,0.02469029277563095,0.003290467197075486,0.9972085952758789,0.09451917558908463,0.26026803255081177,-0.13246053457260132,0.0,-1.0,63.0,27.0,0.027,0.004161452408879995,-0.002846178598701954,0.02418854646384716,0.004455064423382282,-0.0001217589306179434,-0.003449327079579234,0.21540184319019318,1.2655766010284424,0.049474962055683136,0.024256767705082893,-0.0034515918232500553,3.1957656574377324e-06,0.0002209659432992339,3.7161290645599365,10.0,0.0,0.0,0.0,0.0,0.0,32.766,0.321,0.277,0.337,2.86,2018.7122802734375,809.945068359375,31.576580047607422,,False,
1783703846.14359,2026-07-10T10:17:26,277753,20260710_101720,,,,,,arming,,,,,,,,,False,0.02386159636080265,1.6694189980626106e-05,1.0000381469726562,0.06450311094522476,0.0991135686635971,0.031830620020627975,-1.0,2.0,75.0,27.0,0.027,0.004077603109180927,-0.0028583183884620667,0.025380240753293037,0.004140160512179136,2.978054544655606e-05,0.0032054998446255922,0.21613989770412445,1.2687125205993652,0.050977807492017746,0.025411294773221016,0.002908067312091589,3.310262854938628e-06,0.00022908627579454333,3.710850477218628,10.0,0.0,0.0,0.0,0.0,0.0,32.766,0.321,0.277,0.337,2.86,2018.6849365234375,809.9476928710938,31.584081649780273,,False,
1783703846.1537492,2026-07-10T10:17:26,277763,20260710_101720,,,,,,arming,,,,,,,,,False,0.023947671055793762,0.0025311820209026337,0.9989578127861023,0.045417942106723785,0.029952535405755043,7.07768413121812e-05,0.0,-2.0,75.0,27.0,0.027,0.004077603109180927,-0.0028583183884620667,0.025380240753293037,0.004140160512179136,2.978054544655606e-05,0.0032054998446255922,0.21613989770412445,1.2687125205993652,0.050977807492017746,0.025411294773221016,0.002908067312091589,3.310262854938628e-06,0.00022908627579454333,3.710850477218628,10.0,0.0,0.0,0.0,0.0,0.0,32.766,0.321,0.277,0.337,2.86,2018.6849365234375,809.9476928710938,31.584081649780273,,False,
1783703846.1639116,2026-07-10T10:17:26,277773,20260710_101720,,,,,,arming,,,,,,,,,False,0.023624420166015625,0.0044846669770777225,1.0004911422729492,0.07177295535802841,0.06950824707746506,-0.08461418747901917,0.0,-256.0,61.0,27.0,0.027,0.004015308804810047,-0.002507760189473629,0.02544436976313591,0.0040547470562160015,0.0011193903628736734,0.0030412119813263416,0.20510588586330414,1.2671152353286743,0.04988548159599304,0.025411294773221016,0.002908067312091589,3.310262854938628e-06,0.00022908627579454333,3.710850477218628,10.0,0.0,0.0,0.0,0.0,0.0,32.766,0.321,0.277,0.337,2.86,2018.6849365234375,809.9476928710938,31.584081649780273,,False,
1783703846.174067,2026-07-10T10:17:26,277783,20260710_101720,,,,,,arming,,,,,,,,,False,0.02446913905441761,0.0029623769223690033,1.0007878541946411,-0.1508057564496994,0.07611865550279617,-0.08219126611948013,0.0,1.0,73.0,27.0,0.027,0.004015308804810047,-0.002507760189473629,0.02544436976313591,0.0040547470562160015,0.0011193903628736734,0.0030412119813263416,0.20510588586330414,1.2671152353286743,0.04988548159599304,0.025411294773221016,0.002908067312091589,3.310262854938628e-06,0.00022908627579454333,3.710850477218628,10.0,0.0,0.0,0.0,0.0,0.0,32.766,0.321,0.277,0.337,2.86,2018.6849365234375,809.9476928710938,31.584081649780273,,False,
1783703846.1842396,2026-07-10T10:17:26,277793,20260710_101720,,,,,,arming,,,,,,,,,False,0.022813836112618446,0.005641704425215721,1.0010098218917847,0.06635899096727371,0.24681337177753448,0.20686443150043488,0.0,0.0,55.0,27.0,0.027,0.003664318472146988,-0.0024999710731208324,0.025505946949124336,0.0023752201814204454,0.0010331931989639997,0.003057798370718956,0.2062498927116394,1.2782902717590332,0.050087954849004745,0.025411294773221016,0.002908067312091589,3.310262854938628e-06,0.00022908627579454333,3.710850477218628,10.0,0.0,0.0,0.0,0.0,0.0,32.766,0.321,0.277,0.337,2.86,2018.6849365234375,809.9476928710938,31.584081649780273,,False,
1783703846.194399,2026-07-10T10:17:26,277806,20260710_101720,,,,,,arming,,,,,,,,,False,0.021623603999614716,0.002528003416955471,0.9999388456344604,0.18030469119548798,-0.2097117006778717,0.21654604375362396,0.0,0.0,66.0,27.0,0.027,0.0037014938425272703,-0.002481551142409444,0.026275893673300743,0.00250362791121006,0.0011399007635191083,0.007066262420266867,0.2062498927116394,1.2782902717590332,0.050087954849004745,0.026275893673300743,0.007004693616181612,3.20818139698531e-06,0.00022134918253868818,3.710850477218628,10.0,0.0,0.0,0.0,0.0,0.0,32.766,0.314,0.279,0.339,2.841,2018.6849365234375,809.9476928710938,31.584081649780273,,False,
1783703846.204558,2026-07-10T10:17:26,277813,20260710_101720,,,,,,arming,,,,,,,,,False,0.02252483367919922,0.004185942932963371,0.9991743564605713,0.03456874191761017,0.03000262938439846,0.14018602669239044,0.0,0.0,75.0,27.0,0.027,0.0037014938425272703,-0.002481551142409444,0.026275893673300743,0.00250362791121006,0.0011399007635191083,0.007066262420266867,0.20434093475341797,1.2750102281570435,0.05120569467544556,0.026275893673300743,0.007004693616181612,3.20818139698531e-06,0.00022134918253868818,3.710850477218628,10.0,0.0,0.0,0.0,0.0,0.0,32.766,0.314,0.279,0.339,2.841,2018.6849365234375,809.9476928710938,31.584081649780273,,False,
1783703846.2147553,2026-07-10T10:17:26,277823,20260710_101720,,,,,,arming,,,,,,,,,False,0.024647334590554237,0.003568155225366354,0.9997937083244324,-0.05141661688685417,-0.21098683774471283,-0.008152353577315807,0.0,0.0,60.0,27.0,0.027,0.0037014938425272703,-0.002481551142409444,0.026275893673300743,0.00250362791121006,0.0011399007635191083,0.007066262420266867,0.20434093475341797,1.2750102281570435,0.05120569467544556,0.026275893673300743,0.007004693616181612,3.20818139698531e-06,0.00022134918253868818,3.710850477218628,10.0,0.0,0.0,0.0,0.0,0.0,32.766,0.314,0.279,0.339,2.841,2018.6849365234375,809.9476928710938,31.584081649780273,,False,
1783703846.2249336,2026-07-10T10:17:26,277833,20260710_101720,,,,,,arming,,,,,,,,,False,0.025897039100527763,0.004050921648740768,0.9990454316139221,-0.06872658431529999,-0.17705999314785004,0.03516681119799614,0.0,-1.0,58.0,27.0,0.027,0.003751568030565977,-0.0024595188442617655,0.02641727402806282,0.0025093555450439453,0.0011360114440321922,0.007039268035441637,0.20541329681873322,1.275496006011963,0.0538519024848938,0.026275893673300743,0.007004693616181612,3.20818139698531e-06,0.00022134918253868818,3.710850477218628,10.0,0.0,0.0,0.0,0.0,0.0,32.766,0.314,0.279,0.339,2.841,2018.6849365234375,809.9476928710938,31.584081649780273,,False,
1783703846.2352116,2026-07-10T10:17:26,277846,20260710_101720,,,,,,arming,,,,,,,,,False,0.0225690845400095,0.004316149745136499,1.0002937316894531,0.03477049618959427,-0.12144792079925537,0.0037130028940737247,0.0,0.0,65.0,25.0,0.025,0.004180584102869034,-0.002453484106808901,0.025897128507494926,0.004752741195261478,0.0010673115029931068,0.0034149661660194397,0.20541329681873322,1.275496006011963,0.0538519024848938,0.026275893673300743,0.007004693616181612,3.20818139698531e-06,0.00022134918253868818,3.710850477218628,10.0,0.0,0.0,0.0,0.0,0.0,32.766,0.314,0.279,0.339,2.841,2018.6849365234375,809.9476928710938,31.584081649780273,,False,
1783703846.2453952,2026-07-10T10:17:26,277853,20260710_101720,,,,,,arming,,,,,,,,,False,0.02293984219431877,0.004697943106293678,0.9983864426612854,0.1298362761735916,-0.38531458377838135,-0.009229238145053387,0.0,0.0,65.0,25.0,0.025,0.004180584102869034,-0.002453484106808901,0.025897128507494926,0.004752741195261478,0.0010673115029931068,0.0034149661660194397,0.20504893362522125,1.2645121812820435,0.05431744083762169,0.02593114785850048,0.00327879935503006,3.3169033031299477e-06,0.0002291914279339835,3.7161290645599365,10.0,0.0,0.0,0.0,0.0,0.0,32.766,0.314,0.279,0.339,2.841,2018.734130859375,809.9434814453125,31.58860206604004,,False,
1783703846.255562,2026-07-10T10:17:26,277867,20260710_101720,,,,,,arming,,,,,,,,,False,0.026074528694152832,0.003958649933338165,0.9995912909507751,0.015005947090685368,-0.1311517059803009,0.1708337366580963,0.0,2.0,62.0,25.0,0.025,0.0033241785131394863,-0.0024673587176948786,0.025966718792915344,0.0004924570675939322,0.0010182386031374335,0.003263677004724741,0.20695149898529053,1.3001794815063477,0.05380392074584961,0.02593114785850048,0.00327879935503006,3.3169033031299477e-06,0.0002291914279339835,3.7161290645599365,10.0,0.0,0.0,0.0,0.0,0.0,32.766,0.314,0.279,0.339,2.841,2018.734130859375,809.9434814453125,31.58860206604004,,False,
1783703846.2657638,2026-07-10T10:17:26,277873,20260710_101720,,,,,,arming,,,,,,,,,False,0.025544334203004837,0.002539599547162652,0.9992678165435791,-0.039237771183252335,0.3814527094364166,0.2257510870695114,0.0,254.0,62.0,25.0,0.025,0.0033241785131394863,-0.0024673587176948786,0.025966718792915344,0.0004924570675939322,0.0010182386031374335,0.003263677004724741,0.20695149898529053,1.3001794815063477,0.05380392074584961,0.02593114785850048,0.00327879935503006,3.3169033031299477e-06,0.0002291914279339835,3.7161290645599365,10.0,0.0,0.0,0.0,0.0,0.0,32.766,0.314,0.279,0.339,2.841,2018.734130859375,809.9434814453125,31.58860206604004,,False,
1783703846.27592,2026-07-10T10:17:26,277887,20260710_101720,,,,,,arming,,,,,,,,,False,0.02231869474053383,0.0031430923845618963,0.999803900718689,0.27112123370170593,0.07193909585475922,0.020326707512140274,0.0,-256.0,73.0,25.0,0.025,0.004184718243777752,-0.002464578254148364,0.02603338100016117,0.004862755071371794,0.0008612845558673143,0.003228760790079832,0.20779107511043549,1.266566276550293,0.05574362725019455,0.02593114785850048,0.00327879935503006,3.3169033031299477e-06,0.0002291914279339835,3.7161290645599365,10.0,0.0,0.0,0.0,0.0,0.0,32.766,0.314,0.279,0.339,2.841,2018.734130859375,809.9434814453125,31.58860206604004,,False,
1783703846.2860901,2026-07-10T10:17:26,277893,20260710_101720,,,,,,arming,,,,,,,,,False,0.025282595306634903,0.0023333251010626554,0.9990587830543518,-0.049740981310606,0.19869226217269897,-0.007588068023324013,0.0,0.0,58.0,23.0,0.023,0.004184718243777752,-0.002464578254148364,0.02603338100016117,0.004862755071371794,0.0008612845558673143,0.003228760790079832,0.20779107511043549,1.266566276550293,0.05574362725019455,0.02593114785850048,0.00327879935503006,3.3169033031299477e-06,0.0002291914279339835,3.7161290645599365,10.0,0.0,0.0,0.0,0.0,0.0,32.766,0.314,0.279,0.339,2.841,2018.734130859375,809.9434814453125,31.58860206604004,,False,
1783703846.2963367,2026-07-10T10:17:26,277907,20260710_101720,,,,,,arming,,,,,,,,,False,0.02344183810055256,0.0044557624496519566,0.9999641180038452,0.17965756356716156,0.10945916175842285,-0.04447886347770691,0.0,0.0,63.0,23.0,0.023,0.0043130191043019295,-0.002444424433633685,0.024615611881017685,0.005330687388777733,0.0007071770960465074,-0.004784047603607178,0.2090735137462616,1.264241337776184,0.056400738656520844,0.024615611881017685,-0.004903050139546394,3.2108148388942936e-06,0.00022136629559099674,3.710850477218628,10.0,0.0,0.0,0.0,0.0,0.0,32.766,32.766,0.28300000000000003,0.339,2.846,2018.734130859375,809.9434814453125,31.58860206604004,,False,
1783703846.3064969,2026-07-10T10:17:26,277913,20260710_101720,,,,,,arming,,,,,,,,,False,0.02493695355951786,0.00400065490975976,1.0003492832183838,0.24333591759204865,0.011001190170645714,0.17485952377319336,0.0,0.0,75.0,23.0,0.023,0.0043130191043019295,-0.002444424433633685,0.024615611881017685,0.005330687388777733,0.0007071770960465074,-0.004784047603607178,0.2090735137462616,1.264241337776184,0.056400738656520844,0.024615611881017685,-0.004903050139546394,3.2108148388942936e-06,0.00022136629559099674,3.710850477218628,10.0,0.0,0.0,0.0,0.0,0.0,32.766,32.766,0.28300000000000003,0.339,2.846,2018.734130859375,809.9434814453125,31.58860206604004,,False,
1783703846.3166547,2026-07-10T10:17:26,277927,20260710_101720,,,,,,arming,,,,,,,,,False,0.024165097624063492,0.00493916729465127,1.0013514757156372,-0.12120479345321655,-0.015122267417609692,0.205932155251503,0.0,1.0,64.0,23.0,0.023,0.003838730277493596,-0.002436249516904354,0.02452259510755539,0.0030565140768885612,0.0008199370349757373,-0.004680779296904802,0.2118884176015854,1.282241940498352,0.056838154792785645,0.024615611881017685,-0.004903050139546394,3.2108148388942936e-06,0.00022136629559099674,3.710850477218628,10.0,0.0,0.0,0.0,0.0,0.0,32.766,32.766,0.28300000000000003,0.339,2.846,2018.734130859375,809.9434814453125,31.58860206604004,,False,
1783703846.3268423,2026-07-10T10:17:26,277933,20260710_101720,,,,,,arming,,,,,,,,,False,0.02221556566655636,0.004060032777488232,1.001154899597168,0.04818229377269745,-0.07943631708621979,0.11734482645988464,0.0,-1.0,56.0,23.0,0.023,0.003838730277493596,-0.002436249516904354,0.02452259510755539,0.0030565140768885612,0.0008199370349757373,-0.004680779296904802,0.2118884176015854,1.282241940498352,0.056838154792785645,0.024615611881017685,-0.004903050139546394,3.2108148388942936e-06,0.00022136629559099674,3.710850477218628,10.0,0.0,0.0,0.0,0.0,0.0,32.766,32.766,0.28300000000000003,0.339,2.846,2018.734130859375,809.9434814453125,31.58860206604004,,False,
1783703846.337022,2026-07-10T10:17:26,277948,20260710_101720,,,,,,arming,,,,,,,,,False,0.022293977439403534,0.0016598571091890335,1.001443862915039,0.07331385463476181,-0.18486979603767395,0.1804770827293396,0.0,0.0,59.0,27.0,0.027,0.004271901678293943,-0.0024367955047637224,0.025552956387400627,0.004793127533048391,0.0008470308966934681,0.0017034574411809444,0.21025431156158447,1.2665621042251587,0.05900876969099045,0.025570722296833992,0.0017401252407580614,3.317783694001264e-06,0.00022919854382053018,3.710850477218628,10.0,0.0,0.0,0.0,0.0,0.0,32.766,32.766,0.28300000000000003,0.339,2.846,2018.734130859375,809.9434814453125,31.58860206604004,,False,
1783703846.3472338,2026-07-10T10:17:26,277953,20260710_101720,,,,,,arming,,,,,,,,,False,0.024158427491784096,0.0038470085710287094,1.0003598928451538,0.5359072685241699,0.15490926802158356,0.0358576737344265,0.0,1.0,59.0,27.0,0.027,0.004271901678293943,-0.0024367955047637224,0.025552956387400627,0.004793127533048391,0.0008470308966934681,0.0017034574411809444,0.21025431156158447,1.2665621042251587,0.05900876969099045,0.025570722296833992,0.0017401252407580614,3.317783694001264e-06,0.00022919854382053018,3.7161290645599365,10.0,0.0,0.0,0.0,0.0,0.0,32.766,32.766,0.28300000000000003,0.339,2.846,2018.6083984375,809.95458984375,31.59824562072754,,False,
1783703846.3574073,2026-07-10T10:17:26,277967,20260710_101720,,,,,,arming,,,,,,,,,False,0.024047063663601875,0.004799290094524622,0.9997923970222473,-0.03908029571175575,-0.17990799248218536,0.04794972762465477,0.0,-1.0,71.0,27.0,0.027,0.004172737244516611,-0.002457267604768276,0.025590604171156883,0.004227174911648035,0.0005424582632258534,0.001915761618874967,0.2142718881368637,1.2705963850021362,0.0595426969230175,0.025570722296833992,0.0017401252407580614,3.317783694001264e-06,0.00022919854382053018,3.7161290645599365,10.0,0.0,0.0,0.0,0.0,0.0,32.766,32.766,0.28300000000000003,0.339,2.846,2018.6083984375,809.95458984375,31.59824562072754,,False,
1783703846.3675754,2026-07-10T10:17:26,277973,20260710_101720,,,,,,arming,,,,,,,,,False,0.02481670491397381,0.007071448024362326,0.998785674571991,0.12413839995861053,0.14267517626285553,0.24856223165988922,0.0,-1.0,71.0,27.0,0.027,0.004172737244516611,-0.002457267604768276,0.025590604171156883,0.004227174911648035,0.0005424582632258534,0.001915761618874967,0.2142718881368637,1.2705963850021362,0.0595426969230175,0.025570722296833992,0.0017401252407580614,3.317783694001264e-06,0.00022919854382053018,3.7161290645599365,10.0,0.0,0.0,0.0,0.0,0.0,32.766,32.766,0.28300000000000003,0.339,2.846,2018.6083984375,809.95458984375,31.59824562072754,,False,
1783703846.3777812,2026-07-10T10:17:26,277987,20260710_101720,,,,,,arming,,,,,,,,,False,0.021511798724532127,0.0035519201774150133,0.9981369376182556,-0.14047957956790924,-0.6278708577156067,0.05076375603675842,0.0,2.0,67.0,27.0,0.027,-2.222234343207674e-06,1.7374709671003075e-08,0.05507368594408035,-0.0021575181744992733,4.3761971028288826e-05,-2.974093604279915e-06,-0.00015598905156366527,5.550714831770165e-06,-0.0001071447113645263,0.025570722296833992,0.0017401252407580614,3.317783694001264e-06,0.00022919854382053018,3.7161290645599365,10.0,0.0,0.0,0.0,0.0,0.0,32.766,32.766,0.28300000000000003,0.339,2.846,2018.6083984375,809.95458984375,31.59824562072754,,False,
1783703846.3879917,2026-07-10T10:17:26,277999,20260710_101720,,,,,,arming,,,,,,,,,False,0.023611316457390785,0.001878247014246881,1.0006266832351685,0.15342719852924347,0.06857054680585861,-0.03007170930504799,0.0,0.0,56.0,27.0,0.027,-2.222234343207674e-06,1.7374709671003075e-08,0.05507368594408035,-0.0021575181744992733,4.3761971028288826e-05,-2.974093604279915e-06,-0.00015598905156366527,5.550714831770165e-06,-0.0001071447113645263,0.026999162510037422,-6.848325574537739e-05,6.271889560593991e-06,0.0001289999927394092,3.710850477218628,10.0,0.0,0.0,0.0,0.0,0.0,32.766,32.766,0.28300000000000003,0.339,2.846,2018.6083984375,809.95458984375,31.59824562072754,,False,
1783703846.398181,2026-07-10T10:17:26,278007,20260710_101720,,,,,,arming,,,,,,,,,False,0.024271177127957344,0.0028574164025485516,1.0011764764785767,0.23371168971061707,0.1446681171655655,0.031377535313367844,0.0,1.0,61.0,27.0,0.027,-2.7786958526121452e-05,5.511961717274971e-06,0.027000974863767624,0.0009607668034732342,0.0005041083786636591,-6.77940042805858e-05,0.0017542943824082613,0.018540583550930023,-0.0012684582034125924,0.026999162510037422,-6.848325574537739e-05,6.271889560593991e-06,0.0001289999927394092,3.710850477218628,10.0,0.0,0.0,0.0,0.0,0.0,0.279,32.766,0.279,0.334,2.841,2018.6083984375,809.95458984375,31.59824562072754,,False,
1783703846.4083405,2026-07-10T10:17:26,278013,20260710_101720,,,,,,arming,,,,,,,,,False,0.024163372814655304,0.00573985930532217,1.0014300346374512,-0.13657857477664948,-0.17253829538822174,-0.07960318773984909,0.0,-1.0,69.0,27.0,0.027,-2.7786958526121452e-05,5.511961717274971e-06,0.027000974863767624,0.0009607668034732342,0.0005041083786636591,-6.77940042805858e-05,0.0017542943824082613,0.018540583550930023,-0.0012684582034125924,0.026999162510037422,-6.848325574537739e-05,6.271889560593991e-06,0.0001289999927394092,3.710850477218628,10.0,0.0,0.0,0.0,0.0,0.0,0.279,32.766,0.279,0.334,2.841,2018.6083984375,809.95458984375,31.59824562072754,,False,
1783703846.4184978,2026-07-10T10:17:26,278027,20260710_101720,,,,,,arming,,,,,,,,,False,0.02214922197163105,0.005675963591784239,0.9999642372131348,0.04444415122270584,-0.09044136106967926,0.24429760873317719,0.0,0.0,61.0,27.0,0.027,7.667671889066696e-05,2.1343068510759622e-05,0.027000874280929565,0.006664766930043697,0.0013230316108092666,0.00022243654530029744,0.0034805594477802515,0.0021896827965974808,-0.0016606569988653064,0.026999162510037422,-6.848325574537739e-05,6.271889560593991e-06,0.0001289999927394092,3.710850477218628,10.0,0.0,0.0,0.0,0.0,0.0,0.279,32.766,0.279,0.334,2.841,2018.6083984375,809.95458984375,31.59824562072754,,False,
1783703846.428703,2026-07-10T10:17:26,278033,20260710_101720,,,,,,arming,,,,,,,,,False,0.022626331076025963,0.005144695285707712,0.99912428855896,0.06197573244571686,-0.0072386423125863075,0.06521952152252197,0.0,0.0,66.0,27.0,0.027,7.667671889066696e-05,2.1343068510759622e-05,0.027000874280929565,0.006664766930043697,0.0013230316108092666,0.00022243654530029744,0.0034805594477802515,0.0021896827965974808,-0.0016606569988653064,0.026999162510037422,-6.848325574537739e-05,6.271889560593991e-06,0.0001289999927394092,3.710850477218628,10.0,0.0,0.0,0.0,0.0,0.0,0.279,32.766,0.279,0.334,2.841,2018.6083984375,809.95458984375,31.59824562072754,,False,
1783703846.438863,2026-07-10T10:17:26,278050,20260710_101720,,,,,,arming,,,,,,,,,False,0.02433861419558525,0.0030127617064863443,0.9993548393249512,0.3470727205276489,-0.2252553552389145,-0.231063574552536,0.0,1.0,65.0,22.0,0.022,0.00014017269131727517,4.851910853176378e-05,0.0244422797113657,0.00873488374054432,0.0021591733675450087,-0.0021740340162068605,0.009648016653954983,0.058821044862270355,-0.00025055938749574125,0.024420378729701042,-0.0022178268991410732,3.3756159609765746e-06,0.00019621204410213977,3.710850477218628,10.0,0.0,0.0,0.0,0.0,0.0,0.279,32.766,0.279,0.334,2.841,2018.6083984375,809.95458984375,31.59824562072754,,False,
1783703846.449029,2026-07-10T10:17:26,278053,20260710_101720,,,,,,arming,,,,,,,,,False,0.02404697611927986,0.0016109328716993332,1.0015255212783813,0.0628342404961586,0.48445746302604675,-0.17484410107135773,0.0,-1.0,65.0,22.0,0.022,0.00014017269131727517,4.851910853176378e-05,0.0244422797113657,0.00873488374054432,0.0021591733675450087,-0.0021740340162068605,0.009648016653954983,0.058821044862270355,-0.00025055938749574125,0.024420378729701042,-0.0022178268991410732,3.3756159609765746e-06,0.00019621204410213977,3.710850477218628,10.0,0.0,0.0,0.0,0.0,0.0,0.279,32.766,0.279,0.334,2.841,2018.6466064453125,809.9510498046875,31.60602378845215,,False,
1783703846.4592123,2026-07-10T10:17:26,278071,20260710_101720,,,,,,arming,,,,,,,,,False,0.024417202919721603,0.0023409503046423197,0.9992316365242004,0.11999916285276413,0.05789268761873245,0.28248733282089233,0.0,0.0,65.0,22.0,0.022,0.0004093919415026903,8.386703120777383e-05,0.02439698576927185,0.014040145091712475,0.0023726425133645535,-0.002106291940435767,0.01868925243616104,0.03954749181866646,-0.0026738012675195932,0.024420378729701042,-0.0022178268991410732,3.3756159609765746e-06,0.00019621204410213977,3.710850477218628,10.0,0.0,0.0,0.0,0.0,0.0,0.279,32.766,0.279,0.334,2.841,2018.6466064453125,809.9510498046875,31.60602378845215,,False,
1783703846.4694166,2026-07-10T10:17:26,278081,20260710_101720,,,,,,arming,,,,,,,,,False,0.02407115325331688,0.002585542621091008,1.0013399124145508,-0.12506058812141418,0.09403972327709198,0.06773511320352554,0.0,0.0,65.0,22.0,0.022,0.0004093919415026903,8.386703120777383e-05,0.02439698576927185,0.014040145091712475,0.0023726425133645535,-0.002106291940435767,0.01868925243616104,0.03954749181866646,-0.0026738012675195932,0.024420378729701042,-0.0022178268991410732,3.3756159609765746e-06,0.00019621204410213977,3.710850477218628,10.0,0.0,0.0,0.0,0.0,0.0,0.279,32.766,0.279,0.334,2.841,2018.6466064453125,809.9510498046875,31.60602378845215,,False,
1783703846.47965,2026-07-10T10:17:26,278091,20260710_101720,,,,,,arming,,,,,,,,,False,0.02406482584774494,0.0028688989114016294,0.9998908638954163,-0.07282278686761856,-0.13588793575763702,-0.03638940304517746,0.0,0.0,65.0,22.0,0.022,0.0007343551842495799,0.00013571926683653146,0.02435377985239029,0.018521998077630997,0.002785926219075918,-0.0021952332463115454,0.020585985854268074,0.040315546095371246,-0.0017429888248443604,0.024420378729701042,-0.0022178268991410732,3.3756159609765746e-06,0.00019621204410213977,3.710850477218628,10.0,0.0,0.0,0.0,0.0,0.0,0.279,32.766,0.279,0.334,2.841,2018.6466064453125,809.9510498046875,31.60602378845215,,False,
1783703846.489814,2026-07-10T10:17:26,278101,20260710_101720,,,,,,arming,,,,,,,,,False,0.024598564952611923,0.0022785014007240534,0.9974315762519836,-0.12251859903335571,-0.08777063339948654,0.18652598559856415,0.0,0.0,49.0,26.0,0.026,0.0007343551842495799,0.00013571926683653146,0.02435377985239029,0.018521998077630997,0.002785926219075918,-0.0021952332463115454,0.020585985854268074,0.040315546095371246,-0.0017429888248443604,0.02501233108341694,0.0003669909492600709,2.7499777388584334e-06,0.00024219082843046635,3.710850477218628,10.0,0.0,0.0,0.0,0.0,0.0,32.766,32.766,0.278,0.34900000000000003,2.86,2018.6466064453125,809.9510498046875,31.60602378845215,,False,
1783703846.4999828,2026-07-10T10:17:26,278111,20260710_101720,,,,,,arming,,,,,,,,,False,0.025288356468081474,0.002239152090623975,0.9992933869361877,-0.03758446127176285,-0.2637004852294922,-0.00795876607298851,0.0,0.0,62.0,26.0,0.026,0.0011510936310514808,0.0001963620015885681,0.02501233108341694,0.023125581443309784,0.0032797956373542547,0.00038385458174161613,0.019756849855184555,0.03898042440414429,-0.000778205634560436,0.02501233108341694,0.0003669909492600709,2.7499777388584334e-06,0.00024219082843046635,3.710850477218628,10.0,0.0,0.0,0.0,0.0,0.0,32.766,32.766,0.278,0.34900000000000003,2.86,2018.6466064453125,809.9510498046875,31.60602378845215,,False,
1783703846.510154,2026-07-10T10:17:26,278121,20260710_101720,,,,,,arming,,,,,,,,,False,0.025965599343180656,0.0033800138626247644,0.9994817972183228,0.23608584702014923,0.21398843824863434,-0.0075904899276793,0.0,0.0,71.0,26.0,0.026,0.0011510936310514808,0.0001963620015885681,0.02501233108341694,0.023125581443309784,0.0032797956373542547,0.00038385458174161613,0.019756849855184555,0.03898042440414429,-0.000778205634560436,0.02501233108341694,0.0003669909492600709,2.7499777388584334e-06,0.00024219082843046635,3.710850477218628,10.0,0.0,0.0,0.0,0.0,0.0,32.766,32.766,0.278,0.34900000000000003,2.86,2018.6466064453125,809.9510498046875,31.60602378845215,,False,
1783703846.5203168,2026-07-10T10:17:26,278131,20260710_101720,,,,,,arming,,,,,,,,,False,0.023810727521777153,0.005090862046927214,0.9984695315361023,0.056708142161369324,0.0807977095246315,0.08916353434324265,0.0,0.0,63.0,26.0,0.026,0.0016605150885879993,0.00026554084615781903,0.02501598373055458,0.027878854423761368,0.003671359270811081,8.748767140787095e-05,0.017729956656694412,0.03949785977602005,-0.00027865427546203136,0.02501233108341694,0.0003669909492600709,2.7499777388584334e-06,0.00024219082843046635,3.710850477218628,10.0,0.0,0.0,0.0,0.0,0.0,32.766,32.766,0.278,0.34900000000000003,2.86,2018.6466064453125,809.9510498046875,31.60602378845215,,False,
1783703846.5305214,2026-07-10T10:17:26,278141,20260710_101720,,,,,,arming,,,,,,,,,False,0.024040913209319115,0.005576926749199629,0.9988640546798706,0.13004417717456818,0.22449903190135956,0.17172354459762573,2.0,-4.0,69.0,26.0,0.026,0.0016605150885879993,0.00026554084615781903,0.02501598373055458,0.027878854423761368,0.003671359270811081,8.748767140787095e-05,0.017729956656694412,0.03949785977602005,-0.00027865427546203136,0.02501233108341694,0.0003669909492600709,2.7499777388584334e-06,0.00024219082843046635,3.710850477218628,10.0,0.0,0.0,0.0,0.0,0.0,32.766,32.766,0.278,0.34900000000000003,2.86,2018.6466064453125,809.9510498046875,31.60602378845215,,False,
1783703846.540688,2026-07-10T10:17:26,278152,20260710_101720,,,,,,arming,,,,,,,,,False,0.022930637001991272,0.0036684239748865366,1.0012816190719604,0.037538494914770126,-0.303956538438797,0.014525222592055798,-1.0,3.0,60.0,22.0,0.022,0.001704211812466383,-2.5802964955801144e-05,0.023871202021837234,0.02620532363653183,0.0005889147287234664,-0.005914959125220776,0.11100680381059647,0.19440174102783203,0.0010816396679729223,0.02381175383925438,-0.00607151398435235,2.9297259516170016e-06,0.0002722287317737937,3.710850477218628,10.0,0.0,0.0,0.0,0.0,0.0,32.766,32.766,0.278,0.34900000000000003,2.86,2018.6849365234375,809.947509765625,31.61079978942871,,False,
1783703846.5509524,2026-07-10T10:17:26,278161,20260710_101720,,,,,,arming,,,,,,,,,False,0.02406253106892109,0.0039452239871025085,0.9993566870689392,-0.03338119015097618,-0.2293831706047058,0.08476622402667999,-1.0,1.0,66.0,22.0,0.022,0.001704211812466383,-2.5802964955801144e-05,0.023871202021837234,0.02620532363653183,0.0005889147287234664,-0.005914959125220776,0.11100680381059647,0.19440174102783203,0.0010816396679729223,0.02381175383925438,-0.00607151398435235,2.9297259516170016e-06,0.0002722287317737937,3.710850477218628,10.0,0.0,0.0,0.0,0.0,0.0,32.766,32.766,0.278,0.34900000000000003,2.86,2018.6849365234375,809.947509765625,31.61079978942871,,False,
1783703846.5611854,2026-07-10T10:17:26,278173,20260710_101720,,,,,,arming,,,,,,,,,False,0.02240469865500927,0.00364727433770895,0.9996652007102966,-0.10648436099290848,0.008588534779846668,0.06451593339443207,0.0,1.0,74.0,22.0,0.022,0.0015273119788616896,0.00022375972184818238,0.02377133257687092,0.022815071046352386,0.0033580842427909374,-0.005767110735177994,0.05869659408926964,0.3635554611682892,0.00013938525808043778,0.02381175383925438,-0.00607151398435235,2.9297259516170016e-06,0.0002722287317737937,3.710850477218628,10.0,0.0,0.0,0.0,0.0,0.0,32.766,32.766,0.278,0.34900000000000003,2.86,2018.6849365234375,809.947509765625,31.61079978942871,,False,
1783703846.5713537,2026-07-10T10:17:26,278183,20260710_101720,,,,,,arming,,,,,,,,,False,0.02275257743895054,0.0018261447548866272,0.9990877509117126,0.1714303344488144,-0.024283409118652344,-0.055652014911174774,0.0,0.0,74.0,22.0,0.022,0.0015273119788616896,0.00022375972184818238,0.02377133257687092,0.022815071046352386,0.0033580842427909374,-0.005767110735177994,0.05869659408926964,0.3635554611682892,0.00013938525808043778,0.02381175383925438,-0.00607151398435235,2.9297259516170016e-06,0.0002722287317737937,3.710850477218628,10.0,0.0,0.0,0.0,0.0,0.0,32.766,32.766,0.278,0.34900000000000003,2.86,2018.6849365234375,809.947509765625,31.61079978942871,,False,
1783703846.581569,2026-07-10T10:17:26,278191,20260710_101720,,,,,,arming,,,,,,,,,False,0.022692380473017693,0.003287840634584427,1.0013740062713623,0.06356032937765121,-0.17907020449638367,-0.08320547640323639,0.0,0.0,74.0,22.0,0.022,0.0013892384013161063,0.0002471724001225084,0.023668985813856125,0.020212583243846893,0.00339997629635036,-0.0057748365215957165,0.0684456005692482,0.4930931031703949,-4.544400508166291e-05,0.02381175383925438,-0.00607151398435235,2.9297259516170016e-06,0.0002722287317737937,3.710850477218628,10.0,0.0,0.0,0.0,0.0,0.0,32.766,32.766,0.278,0.34900000000000003,2.86,2018.6849365234375,809.947509765625,31.61079978942871,,False,
1783703846.591728,2026-07-10T10:17:26,278203,20260710_101720,,,,,,arming,,,,,,,,,False,0.021541088819503784,0.005084814503788948,0.9975861310958862,0.020931601524353027,0.23639747500419617,0.10032341629266739,0.0,0.0,68.0,23.0,0.023,0.0013892384013161063,0.0002471724001225084,0.023668985813856125,0.020212583243846893,0.00339997629635036,-0.0057748365215957165,0.0684456005692482,0.4930931031703949,-4.544400508166291e-05,0.02327069826424122,-0.0075867678970098495,3.0916583000362152e-06,0.0002607204078231007,3.710850477218628,10.0,0.0,0.0,0.0,0.0,0.0,0.281,32.766,0.28,0.342,2.847,2018.6849365234375,809.947509765625,31.61079978942871,,False,
1783703846.6019258,2026-07-10T10:17:26,278211,20260710_101720,,,,,,arming,,,,,,,,,False,0.022797422483563423,0.0034765764139592648,0.9987056851387024,-0.10219676792621613,0.04642251133918762,-0.22725839912891388,0.0,0.0,68.0,23.0,0.023,0.0018174173310399055,0.0003172544529661536,0.02327069826424122,0.022942068055272102,0.003715387312695384,-0.007384289521723986,0.07109693437814713,0.49482929706573486,-0.00037716267979703844,0.02327069826424122,-0.0075867678970098495,3.0916583000362152e-06,0.0002607204078231007,3.710850477218628,10.0,0.0,0.0,0.0,0.0,0.0,0.281,32.766,0.28,0.342,2.847,2018.6849365234375,809.947509765625,31.61079978942871,,False,
1783703846.6121325,2026-07-10T10:17:26,278223,20260710_101720,,,,,,arming,,,,,,,,,False,0.023304171860218048,0.0027328955475240946,1.0003784894943237,0.12975700199604034,-0.1244906410574913,-0.1735096573829651,0.0,0.0,64.0,23.0,0.023,0.0018174173310399055,0.0003172544529661536,0.02327069826424122,0.022942068055272102,0.003715387312695384,-0.007384289521723986,0.07109693437814713,0.49482929706573486,-0.00037716267979703844,0.02327069826424122,-0.0075867678970098495,3.0916583000362152e-06,0.0002607204078231007,3.710850477218628,10.0,0.0,0.0,0.0,0.0,0.0,0.281,32.766,0.28,0.342,2.847,2018.6849365234375,809.947509765625,31.61079978942871,,False,
1783703846.6223319,2026-07-10T10:17:26,278233,20260710_101720,,,,,,arming,,,,,,,,,False,0.02551455609500408,0.004427342209964991,1.0014195442199707,0.12857450544834137,-0.2841460406780243,0.06218358874320984,0.0,-2.0,70.0,23.0,0.023,0.0023022834211587906,0.00039745282265357673,0.023119155317544937,0.02562124654650688,0.004244158044457436,-0.007708067540079355,0.07040811330080032,0.4904511570930481,0.00046066229697316885,0.02327069826424122,-0.0075867678970098495,3.0916583000362152e-06,0.0002607204078231007,3.710850477218628,10.0,0.0,0.0,0.0,0.0,0.0,0.281,32.766,0.28,0.342,2.847,2018.6849365234375,809.947509765625,31.61079978942871,,False,
1783703846.6326063,2026-07-10T10:17:26,278243,20260710_101720,,,,,,arming,,,,,,,,,False,0.02410983107984066,0.005238131619989872,1.0015583038330078,-0.11884841322898865,-0.2289542853832245,-0.1722535490989685,0.0,1.0,65.0,25.0,0.025,0.0023022834211587906,0.00039745282265357673,0.023119155317544937,0.02562124654650688,0.004244158044457436,-0.007708067540079355,0.07040811330080032,0.4904511570930481,0.00046066229697316885,0.02327069826424122,-0.0075867678970098495,3.0916583000362152e-06,0.0002607204078231007,3.710850477218628,10.0,0.0,0.0,0.0,0.0,0.0,0.281,32.766,0.28,0.342,2.847,2018.6849365234375,809.947509765625,31.61079978942871,,False,
1783703846.6428897,2026-07-10T10:17:26,278253,20260710_101720,,,,,,arming,,,,,,,,,False,0.0237260852009058,0.00487224105745554,1.0016463994979858,-0.015364333055913448,-0.01591625064611435,0.0452611930668354,0.0,1.0,63.0,25.0,0.025,0.0021642809733748436,0.0003209490387234837,0.023850953206419945,0.023077497258782387,0.0034004615154117346,-0.0022699330002069473,0.09859129041433334,0.6039928197860718,-0.0007434274884872139,0.023829082027077675,-0.0023678878787904978,3.377072971488815e-06,0.0002569416828919202,3.710850477218628,10.0,0.0,0.0,0.0,0.0,0.0,0.281,32.766,0.28,0.342,2.847,2018.6356201171875,809.9521484375,31.617076873779297,,False,
1783703846.6531303,2026-07-10T10:17:26,278263,20260710_101720,,,,,,arming,,,,,,,,,False,0.021001650020480156,0.004221864510327578,1.000192403793335,0.0162056852132082,-0.08234880864620209,0.27299007773399353,0.0,0.0,65.0,25.0,0.025,0.0021642809733748436,0.0003209490387234837,0.023850953206419945,0.023077497258782387,0.0034004615154117346,-0.0022699330002069473,0.09859129041433334,0.6039928197860718,-0.0007434274884872139,0.023829082027077675,-0.0023678878787904978,3.377072971488815e-06,0.0002569416828919202,3.710850477218628,10.0,0.0,0.0,0.0,0.0,0.0,0.281,32.766,0.28,0.342,2.847,2018.6356201171875,809.9521484375,31.617076873779297,,False,
1783703846.6634185,2026-07-10T10:17:26,278273,20260710_101720,,,,,,arming,,,,,,,,,False,0.02230488881468773,0.003045947290956974,1.000652551651001,0.13118988275527954,-0.0843598023056984,-0.15081369876861572,2.0,-4.0,67.0,25.0,0.025,0.0017699622549116611,0.0003199110506102443,0.02381753735244274,0.019001465290784836,0.003450588323175907,-0.0019101389916613698,0.10761179774999619,0.7236450910568237,-0.0007368052611127496,0.023829082027077675,-0.0023678878787904978,3.377072971488815e-06,0.0002569416828919202,3.710850477218628,10.0,0.0,0.0,0.0,0.0,0.0,0.281,32.766,0.28,0.342,2.847,2018.6356201171875,809.9521484375,31.617076873779297,,False,
1783703846.673633,2026-07-10T10:17:26,278283,20260710_101720,,,,,,arming,,,,,,,,,False,0.02371605671942234,0.0020778628531843424,1.0011399984359741,0.07968404144048691,-0.013937139883637428,0.02395045943558216,-1.0,5.0,54.0,25.0,0.025,0.0017699622549116611,0.0003199110506102443,0.02381753735244274,0.019001465290784836,0.003450588323175907,-0.0019101389916613698,0.10761179774999619,0.7236450910568237,-0.0007368052611127496,0.023829082027077675,-0.0023678878787904978,3.377072971488815e-06,0.0002569416828919202,3.710850477218628,10.0,0.0,0.0,0.0,0.0,0.0,0.281,32.766,0.28,0.342,2.847,2018.6356201171875,809.9521484375,31.617076873779297,,False,
1783703846.6837897,2026-07-10T10:17:26,278293,20260710_101720,,,,,,arming,,,,,,,,,False,0.024215374141931534,0.003988682758063078,1.000720739364624,0.11872676759958267,0.4095490574836731,0.05954404175281525,0.0,1.0,55.0,23.0,0.023,0.0010297854896634817,-0.00010519394709262997,0.023830220103263855,0.012125025503337383,0.00022108042321633548,-0.0015033793170005083,0.17047715187072754,0.8775485157966614,-5.773613884230144e-05,0.023829082027077675,-0.0023678878787904978,3.377072971488815e-06,0.0002569416828919202,3.710850477218628,10.0,0.0,0.0,0.0,0.0,0.0,0.281,32.766,0.28,0.342,2.847,2018.6356201171875,809.9521484375,31.617076873779297,,False,
1783703846.6939483,2026-07-10T10:17:26,278303,20260710_101720,,,,,,arming,,,,,,,,,False,0.02315111830830574,0.003457172540947795,0.999005913734436,0.2773786783218384,-0.013178750872612,-0.1282922327518463,0.0,-2.0,62.0,23.0,0.023,0.0010297854896634817,-0.00010519394709262997,0.023830220103263855,0.012125025503337383,0.00022108042321633548,-0.0015033793170005083,0.17047715187072754,0.8775485157966614,-5.773613884230144e-05,0.02339465729892254,-0.003763485001400113,3.3114633879449684e-06,0.0002366778498981148,3.710850477218628,10.0,0.0,0.0,0.0,0.0,0.0,0.276,32.766,0.28200000000000003,32.766,2.854,2018.6356201171875,809.9521484375,31.617076873779297,,False,
1783703846.7041311,2026-07-10T10:17:26,278313,20260710_101720,,,,,,arming,,,,,,,,,False,0.02334499917924404,0.0022200061939656734,0.9988545775413513,0.005091718398034573,0.25125041604042053,0.2676542401313782,0.0,0.0,64.0,23.0,0.023,0.0011971952626481652,-0.00012022762530250475,0.023397980257868767,0.013311609625816345,0.0001534705370431766,-0.0035678029526025057,0.17263200879096985,0.8835121989250183,0.0002946934837382287,0.02339465729892254,-0.003763485001400113,3.3114633879449684e-06,0.0002366778498981148,3.710850477218628,10.0,0.0,0.0,0.0,0.0,0.0,0.276,32.766,0.28200000000000003,32.766,2.854,2018.6356201171875,809.9521484375,31.617076873779297,,False,
1783703846.7143364,2026-07-10T10:17:26,278323,20260710_101720,,,,,,arming,,,,,,,,,False,0.024516893550753593,0.004449148662388325,0.9978072643280029,0.2304830104112625,0.35408666729927063,-0.16708238422870636,0.0,-1.0,64.0,23.0,0.023,0.0011971952626481652,-0.00012022762530250475,0.023397980257868767,0.013311609625816345,0.0001534705370431766,-0.0035678029526025057,0.17263200879096985,0.8835121989250183,0.0002946934837382287,0.02339465729892254,-0.003763485001400113,3.3114633879449684e-06,0.0002366778498981148,3.710850477218628,10.0,0.0,0.0,0.0,0.0,0.0,0.276,32.766,0.28200000000000003,32.766,2.854,2018.6356201171875,809.9521484375,31.617076873779297,,False,
1783703846.7245066,2026-07-10T10:17:26,278333,20260710_101720,,,,,,arming,,,,,,,,,False,0.02628296986222267,0.003062748583033681,1.0002000331878662,0.4130621552467346,0.1686752587556839,-0.06575282663106918,0.0,0.0,67.0,23.0,0.023,0.001591281034052372,-0.00011728738172678277,0.02332475781440735,0.0156821608543396,0.00017573244986124337,-0.0037698533851653337,0.17483842372894287,0.8668656945228577,0.001261242781765759,0.02339465729892254,-0.003763485001400113,3.3114633879449684e-06,0.0002366778498981148,3.710850477218628,10.0,0.0,0.0,0.0,0.0,0.0,0.276,32.766,0.28200000000000003,32.766,2.854,2018.6356201171875,809.9521484375,31.617076873779297,,False,
1783703846.7346802,2026-07-10T10:17:26,278346,20260710_101720,,,,,,arming,,,,,,,,,False,0.02551119588315487,0.0037515994627028704,1.0005170106887817,0.011272063478827477,0.29247376322746277,0.03302048519253731,0.0,0.0,63.0,26.0,0.026,0.001942734932526946,-0.00011169445497216657,0.024484602734446526,0.017739493399858475,0.0003099162713624537,0.002982010366395116,0.17483842372894287,0.8668656945228577,0.001261242781765759,0.02339465729892254,-0.003763485001400113,3.3114633879449684e-06,0.0002366778498981148,3.710850477218628,10.0,0.0,0.0,0.0,0.0,0.0,0.276,32.766,0.28200000000000003,32.766,2.854,2018.6356201171875,809.9521484375,31.617076873779297,,False,
1783703846.7448838,2026-07-10T10:17:26,278353,20260710_101720,,,,,,arming,,,,,,,,,False,0.024713004007935524,0.0030425740405917168,0.9983121156692505,-0.22341696918010712,-0.170554980635643,-0.290907621383667,0.0,0.0,61.0,26.0,0.026,0.001942734932526946,-0.00011169445497216657,0.024484602734446526,0.017739493399858475,0.0003099162713624537,0.002982010366395116,0.1765613853931427,0.8593716025352478,0.002120071556419134,0.024514678865671158,0.0027520593721419573,3.4189631605840987e-06,0.00023854179016780108,3.710850477218628,10.0,0.0,0.0,0.0,0.0,0.0,0.276,32.766,0.28200000000000003,32.766,2.854,2018.706787109375,809.9456176757812,31.62172508239746,,False,
1783703846.755047,2026-07-10T10:17:26,278366,20260710_101720,,,,,,arming,,,,,,,,,False,0.02381010539829731,0.0038269341457635164,0.9996151328086853,0.08139759302139282,0.12657813727855682,0.04866805300116539,0.0,0.0,77.0,26.0,0.026,0.0023169866763055325,-0.000104747356090229,0.024544456973671913,0.019635453820228577,0.0003647676785476506,0.002922597574070096,0.1765613853931427,0.8593716025352478,0.002120071556419134,0.024514678865671158,0.0027520593721419573,3.4189631605840987e-06,0.00023854179016780108,3.710850477218628,10.0,0.0,0.0,0.0,0.0,0.0,0.276,32.766,0.28200000000000003,32.766,2.854,2018.706787109375,809.9456176757812,31.62172508239746,,False,
1783703846.7652555,2026-07-10T10:17:26,278373,20260710_101720,,,,,,arming,,,,,,,,,False,0.02620822563767433,0.003976598847657442,0.9986025094985962,0.26757344603538513,-0.04505697265267372,-0.11994852125644684,0.0,2.0,74.0,26.0,0.026,0.0023169866763055325,-0.000104747356090229,0.024544456973671913,0.019635453820228577,0.0003647676785476506,0.002922597574070096,0.1762874722480774,0.8548154830932617,0.002577803563326597,0.024514678865671158,0.0027520593721419573,3.4189631605840987e-06,0.00023854179016780108,3.710850477218628,10.0,0.0,0.0,0.0,0.0,0.0,0.276,32.766,0.28200000000000003,32.766,2.854,2018.706787109375,809.9456176757812,31.62172508239746,,False,
1783703846.7754276,2026-07-10T10:17:26,278387,20260710_101720,,,,,,arming,,,,,,,,,False,0.024750249460339546,0.002329023787751794,0.9975119829177856,-0.06733297556638718,-0.5170026421546936,0.15516237914562225,0.0,0.0,52.0,26.0,0.026,0.001240210491232574,-0.00011210723459953442,0.02461492083966732,0.012310868129134178,0.00035660387948155403,0.0028425147756934166,0.17855492234230042,0.9866657257080078,0.0024546831846237183,0.024514678865671158,0.0027520593721419573,3.4189631605840987e-06,0.00023854179016780108,3.710850477218628,10.0,0.0,0.0,0.0,0.0,0.0,0.276,32.766,0.28200000000000003,32.766,2.854,2018.706787109375,809.9456176757812,31.62172508239746,,False,
1783703846.7855878,2026-07-10T10:17:26,278393,20260710_101720,,,,,,arming,,,,,,,,,False,0.025471605360507965,0.002145316917449236,0.999606728553772,0.017697691917419434,0.14327314496040344,0.16860781610012054,0.0,0.0,56.0,24.0,0.024,0.001240210491232574,-0.00011210723459953442,0.02461492083966732,0.012310868129134178,0.00035660387948155403,0.0028425147756934166,0.17855492234230042,0.9866657257080078,0.0024546831846237183,0.024514678865671158,0.0027520593721419573,3.4189631605840987e-06,0.00023854179016780108,3.710850477218628,10.0,0.0,0.0,0.0,0.0,0.0,0.276,32.766,0.28200000000000003,32.766,2.854,2018.706787109375,809.9456176757812,31.62172508239746,,False,
1783703846.7957466,2026-07-10T10:17:26,278407,20260710_101720,,,,,,arming,,,,,,,,,False,0.024517741054296494,0.002368823392316699,0.9993020296096802,0.23812736570835114,0.18524843454360962,0.11772865056991577,0.0,-1.0,71.0,24.0,0.024,0.0016628298908472061,-0.00012328874436207116,0.024351825937628746,0.014873379841446877,0.0001537426287541166,0.0009557529701851308,0.18022379279136658,0.9714549779891968,0.004091258160769939,0.02435208112001419,0.0007175770588219166,3.2789675969979726e-06,0.00022843218175694346,3.710850477218628,10.0,0.0,0.0,0.0,0.0,0.0,0.279,0.317,0.28500000000000003,32.766,2.85,2018.706787109375,809.9456176757812,31.62172508239746,,False,
1783703846.8059032,2026-07-10T10:17:26,278413,20260710_101720,,,,,,arming,,,,,,,,,False,0.0249924436211586,0.003101511625573039,0.9991994500160217,-0.10416784882545471,-0.21891526877880096,-0.16673597693443298,0.0,-1.0,66.0,24.0,0.024,0.0016628298908472061,-0.00012328874436207116,0.024351825937628746,0.014873379841446877,0.0001537426287541166,0.0009557529701851308,0.18022379279136658,0.9714549779891968,0.004091258160769939,0.02435208112001419,0.0007175770588219166,3.2789675969979726e-06,0.00022843218175694346,3.710850477218628,10.0,0.0,0.0,0.0,0.0,0.0,0.279,0.317,0.28500000000000003,32.766,2.85,2018.706787109375,809.9456176757812,31.62172508239746,,False,
1783703846.8160603,2026-07-10T10:17:26,278426,20260710_101720,,,,,,arming,,,,,,,,,False,0.02361789532005787,0.0027387074660509825,1.0007247924804688,0.08190011233091354,0.14751268923282623,-0.039298757910728455,0.0,1.0,66.0,24.0,0.024,0.0012870309874415398,-0.00012394663644954562,0.02437383122742176,0.012265202589333057,2.5606499548302963e-05,0.0008797825430519879,0.18022379279136658,0.9714549779891968,0.004091258160769939,0.02435208112001419,0.0007175770588219166,3.2789675969979726e-06,0.00022843218175694346,3.710850477218628,10.0,0.0,0.0,0.0,0.0,0.0,0.279,0.317,0.28500000000000003,32.766,2.85,2018.706787109375,809.9456176757812,31.62172508239746,,False,
1783703846.8262255,2026-07-10T10:17:26,278433,20260710_101720,,,,,,arming,,,,,,,,,False,0.020953219383955002,0.000495231943204999,0.9994407296180725,0.03580765426158905,0.21871034801006317,0.4237143099308014,0.0,-1.0,74.0,24.0,0.024,0.0012870309874415398,-0.00012394663644954562,0.02437383122742176,0.012265202589333057,2.5606499548302963e-05,0.0008797825430519879,0.1812087446451187,1.024985671043396,0.00407418143004179,0.02435208112001419,0.0007175770588219166,3.2789675969979726e-06,0.00022843218175694346,3.710850477218628,10.0,0.0,0.0,0.0,0.0,0.0,0.279,0.317,0.28500000000000003,32.766,2.85,2018.706787109375,809.9456176757812,31.62172508239746,,False,
1783703846.836443,2026-07-10T10:17:26,278448,20260710_101720,,,,,,arming,,,,,,,,,False,0.0234390776604414,0.0030945250764489174,0.9986743927001953,-0.08281858265399933,-0.06407319009304047,-0.15285077691078186,0.0,0.0,65.0,27.0,0.027,0.001737541751936078,-0.0001232566573889926,0.025570785626769066,0.014227230101823807,-0.0002480727853253484,0.00728550786152482,0.18234914541244507,1.006103754043579,0.006569711025804281,0.025643128901720047,0.006924044340848923,3.3678229556244332e-06,0.00023308188247028738,3.710850477218628,10.0,0.0,0.0,0.0,0.0,0.0,0.279,0.317,0.28500000000000003,32.766,2.85,2018.706787109375,809.9456176757812,31.62172508239746,,False,
1783703846.8466005,2026-07-10T10:17:26,278453,20260710_101720,,,,,,arming,,,,,,,,,False,0.022839294746518135,0.0014688922092318535,0.9992270469665527,0.06794439256191254,0.031107641756534576,-0.1774093210697174,0.0,0.0,62.0,27.0,0.027,0.001737541751936078,-0.0001232566573889926,0.025570785626769066,0.014227230101823807,-0.0002480727853253484,0.00728550786152482,0.18234914541244507,1.006103754043579,0.006569711025804281,0.025643128901720047,0.006924044340848923,3.3678229556244332e-06,0.00023308188247028738,3.710850477218628,10.0,0.0,0.0,0.0,0.0,0.0,0.279,0.317,0.28500000000000003,32.766,2.85,2018.652099609375,809.9505004882812,31.62953758239746,,False,
1783703846.8567567,2026-07-10T10:17:26,278467,20260710_101720,,,,,,arming,,,,,,,,,False,0.02456546202301979,0.0035418872721493244,0.9998198747634888,-0.2793581187725067,-0.29397720098495483,0.2378438264131546,0.0,0.0,72.0,27.0,0.027,0.0020326811354607344,-0.0001291909284191206,0.025714881718158722,0.01528848148882389,-0.00041322631295770407,0.007167339324951172,0.1820673644542694,1.002616286277771,0.0051534222438931465,0.025643128901720047,0.006924044340848923,3.3678229556244332e-06,0.00023308188247028738,3.710850477218628,10.0,0.0,0.0,0.0,0.0,0.0,0.279,0.317,0.28500000000000003,32.766,2.85,2018.652099609375,809.9505004882812,31.62953758239746,,False,
1783703846.8669126,2026-07-10T10:17:26,278473,20260710_101720,,,,,,arming,,,,,,,,,False,0.024493737146258354,0.0033516455441713333,0.9989734292030334,0.29658111929893494,0.022821471095085144,0.01604372262954712,1.0,-3.0,73.0,27.0,0.027,0.0020326811354607344,-0.0001291909284191206,0.025714881718158722,0.01528848148882389,-0.00041322631295770407,0.007167339324951172,0.1820673644542694,1.002616286277771,0.0051534222438931465,0.025643128901720047,0.006924044340848923,3.3678229556244332e-06,0.00023308188247028738,3.710850477218628,10.0,0.0,0.0,0.0,0.0,0.0,0.279,0.317,0.28500000000000003,32.766,2.85,2018.652099609375,809.9505004882812,31.62953758239746,,False,
1783703846.8770714,2026-07-10T10:17:26,278487,20260710_101720,,,,,,arming,,,,,,,,,False,0.02404708042740822,0.0039777304045856,0.9980209469795227,-0.0007742998423054814,-0.21415495872497559,-0.08753353357315063,-1.0,3.0,56.0,27.0,0.027,0.0016059504123404622,-0.00013090367428958416,0.025880828499794006,0.012295701541006565,-0.00028170261066406965,0.00729514192789793,0.1800379902124405,1.0565968751907349,0.0073210736736655235,0.025643128901720047,0.006924044340848923,3.3678229556244332e-06,0.00023308188247028738,3.710850477218628,10.0,0.0,0.0,0.0,0.0,0.0,0.279,0.317,0.28500000000000003,32.766,2.85,2018.652099609375,809.9505004882812,31.62953758239746,,False,
1783703846.887234,2026-07-10T10:17:26,278499,20260710_101720,,,,,,arming,,,,,,,,,False,0.02469061315059662,0.0023397025652229786,0.9983547925949097,0.35980090498924255,-0.09511782974004745,-0.10844090580940247,-1.0,2.0,49.0,23.0,0.023,0.0016059504123404622,-0.00013090367428958416,0.025880828499794006,0.012295701541006565,-0.00028170261066406965,0.00729514192789793,0.1800379902124405,1.0565968751907349,0.0073210736736655235,0.024583447724580765,-0.0009130944963544607,3.243012770326459e-06,0.0002304382942384109,3.710850477218628,10.0,0.0,0.0,0.0,0.0,0.0,0.279,0.317,0.28500000000000003,32.766,2.85,2018.652099609375,809.9505004882812,31.62953758239746,,False,
1783703846.897395,2026-07-10T10:17:26,278507,20260710_101720,,,,,,arming,,,,,,,,,False,0.025842919945716858,0.0022672289051115513,0.9997549057006836,-0.0541597343981266,-0.03102658875286579,0.24373796582221985,0.0,0.0,65.0,23.0,0.023,0.0006648371927440166,0.00031847722129896283,0.024583447724580765,0.007050949614495039,0.002137073315680027,-0.0007680702838115394,0.1532667577266693,1.1332873106002808,0.007542135193943977,0.024583447724580765,-0.0009130944963544607,3.243012770326459e-06,0.0002304382942384109,3.710850477218628,10.0,0.0,0.0,0.0,0.0,0.0,32.766,0.315,0.28200000000000003,0.34700000000000003,2.843,2018.652099609375,809.9505004882812,31.62953758239746,,False,
