pc_time_s,pc_time_iso,cf_time_ms,session_id,motif_id,motif_type,motif_phase,rep_index,motif_param_json,flight_phase,cmd_vx_m_s,cmd_vy_m_s,cmd_yaw_rate_deg_s,cmd_height_m,cmd_vx_raw_m_s,cmd_vy_raw_m_s,cmd_yaw_rate_raw_deg_s,cmd_height_raw_m,safety_override_active,acc_x_g,acc_y_g,acc_z_g,gyro_x_dps,gyro_y_dps,gyro_z_dps,flow_delta_x_px,flow_delta_y_px,flow_squal,zrange_mm,zrange_m,x_m,y_m,z_m,vx_m_s,vy_m_s,vz_m_s,roll_deg,pitch_deg,yaw_deg,kalman_state_z_m,kalman_state_pz,kalman_var_z,kalman_var_pz,battery_v,battery_level_pct,pm_state,motor_m1,motor_m2,motor_m3,motor_m4,range_front_m,range_back_m,range_left_m,range_right_m,range_up_m,baro_asl_m,baro_pressure_hpa,baro_temp_c,safety_flag,should_land,event
1783703873.5102677,2026-07-10T10:17:53,,20260710_101749,,,,,,ground_idle,,,,,,,,,False,,,,,,,,,,,,,,,,,,,,,,,,,,,,,,,,,,,,,,,,,False,
1783703873.5204113,2026-07-10T10:17:53,,20260710_101749,,,,,,ground_idle,,,,,,,,,False,,,,,,,,,,,,,,,,,,,,,,,,,,,,,,,,,,,,,,,,,False,
1783703873.5305355,2026-07-10T10:17:53,11845,20260710_101749,,,,,,ground_idle,,,,,,,,,False,0.023299528285861015,0.002279846230521798,1.0019806623458862,0.1649971753358841,0.10632006078958511,0.03697151318192482,-1.0,-4.0,59.0,29.0,0.029,,,,,,,,,,,,,,,,,,,,,,,,,,,,,,False,
1783703873.5406597,2026-07-10T10:17:53,11857,20260710_101749,,,,,,ground_idle,,,,,,,,,False,0.02227748930454254,0.0023587397299706936,1.0002435445785522,0.028907261788845062,-0.23397044837474823,-0.1606333702802658,0.0,0.0,58.0,29.0,0.029,0.001728048431687057,-0.0006485128542408347,0.028485462069511414,0.007261354476213455,0.00026904381229542196,0.000989156891591847,0.10379777103662491,1.1258286237716675,0.01066073589026928,,,,,,,,,,,,,,,,,,,,,False,
1783703873.5507953,2026-07-10T10:17:53,11865,20260710_101749,,,,,,ground_idle,,,,,,,,,False,0.02269851416349411,0.0024570326786488295,0.9993422627449036,0.0749785527586937,-0.5204330086708069,0.18385286629199982,2.0,1.0,60.0,29.0,0.029,0.001728048431687057,-0.0006485128542408347,0.028485462069511414,0.007261354476213455,0.00026904381229542196,0.000989156891591847,0.10379777103662491,1.1258286237716675,0.01066073589026928,,,,,,,,,,,,,,,,,,,,,False,
1783703873.5609186,2026-07-10T10:17:53,11877,20260710_101749,,,,,,ground_idle,,,,,,,,,False,0.022386280819773674,0.000426494050770998,0.9998372793197632,0.15480975806713104,0.23521873354911804,-0.1715737134218216,0.0,1.0,72.0,29.0,0.029,0.00127649016212672,-0.0010933021549135447,0.028510821983218193,0.004600354004651308,-0.001954559236764908,0.0010154293850064278,0.12268541008234024,1.1513837575912476,0.009824910201132298,,,,,,,,,,,,,,,,,,,,,False,
1783703873.571038,2026-07-10T10:17:53,11889,20260710_101749,,,,,,ground_idle,,,,,,,,,False,0.02224632538855076,0.0006813653162680566,1.0009039640426636,0.08605115115642548,0.25427061319351196,-0.05808651074767113,-4.0,1.0,50.0,29.0,0.029,0.00127649016212672,-0.0010933021549135447,0.028510821983218193,0.004600354004651308,-0.001954559236764908,0.0010154293850064278,0.12268541008234024,1.1513837575912476,0.009824910201132298,0.028537414968013763,0.001047387602739036,4.6973223106761e-06,0.00022076973982620984,3.7161290645599365,10.0,0.0,0.0,0.0,0.0,0.0,,,,,,,,,,False,
1783703873.5811765,2026-07-10T10:17:53,11901,20260710_101749,,,,,,ground_idle,,,,,,,,,False,0.020867114886641502,0.003823058446869254,0.9990752935409546,-0.02307288721203804,-0.13934554159641266,0.1505030393600464,4.0,1.0,49.0,30.0,0.03,0.0008264901116490364,-0.0010884521761909127,0.029168207198381424,0.0021258897613734007,-0.002141230506822467,0.004420312121510506,0.12332075089216232,1.172067403793335,0.009065697900950909,0.028537414968013763,0.001047387602739036,4.6973223106761e-06,0.00022076973982620984,3.7161290645599365,10.0,0.0,0.0,0.0,0.0,0.0,32.766,32.766,0.279,32.766,2.836,,,,,False,
1783703873.5913086,2026-07-10T10:17:53,11905,20260710_101749,,,,,,ground_idle,,,,,,,,,False,0.020867114886641502,0.003823058446869254,0.9990752935409546,-0.02307288721203804,-0.13934554159641266,0.1505030393600464,0.0,-1.0,56.0,30.0,0.03,0.0008264901116490364,-0.0010884521761909127,0.029168207198381424,0.0021258897613734007,-0.002141230506822467,0.004420312121510506,0.12332075089216232,1.172067403793335,0.009065697900950909,0.028537414968013763,0.001047387602739036,4.6973223106761e-06,0.00022076973982620984,3.7161290645599365,10.0,0.0,0.0,0.0,0.0,0.0,32.766,32.766,0.279,32.766,2.836,,,,,False,
1783703873.6014836,2026-07-10T10:17:53,11921,20260710_101749,,,,,,ground_idle,,,,,,,,,False,0.02005598694086075,0.004979054443538189,1.0008320808410645,0.22809746861457825,-0.04914451017975807,-0.05635141581296921,-3.0,-3.0,61.0,30.0,0.03,0.0016777357086539268,-0.00044966439600102603,0.02925879880785942,0.006736427545547485,0.0019061070634052157,0.004460982512682676,0.09493186324834824,1.1354265213012695,0.00892157107591629,0.028537414968013763,0.001047387602739036,4.6973223106761e-06,0.00022076973982620984,3.7161290645599365,10.0,0.0,0.0,0.0,0.0,0.0,32.766,32.766,0.279,32.766,2.836,,,,,False,
1783703873.611646,2026-07-10T10:17:53,11931,20260710_101749,,,,,,ground_idle,,,,,,,,,False,0.024131063371896744,0.0010992382885888219,1.0015544891357422,0.11334313452243805,0.3360120952129364,-0.1112111285328865,3.0,2.0,59.0,30.0,0.03,0.0016777357086539268,-0.00044966439600102603,0.02925879880785942,0.006736427545547485,0.0019061070634052157,0.004460982512682676,0.09493186324834824,1.1354265213012695,0.00892157107591629,0.028537414968013763,0.001047387602739036,4.6973223106761e-06,0.00022076973982620984,3.7161290645599365,10.0,0.0,0.0,0.0,0.0,0.0,32.766,32.766,0.279,32.766,2.836,,,,,False,
1783703873.6217928,2026-07-10T10:17:53,11939,20260710_101749,,,,,,ground_idle,,,,,,,,,False,0.024131063371896744,0.0010992382885888219,1.0015544891357422,0.11334313452243805,0.3360120952129364,-0.1112111285328865,-7.0,1.0,53.0,30.0,0.03,0.0010365124326199293,0.0003863746242132038,0.029613854363560677,0.00272071803919971,0.006849478464573622,0.005922796204686165,0.06116856262087822,1.1641045808792114,0.008315077982842922,0.02967381663620472,0.006000415422022343,2.753354465312441e-06,0.00017077625670935959,3.710850477218628,10.0,0.0,0.0,0.0,0.0,0.0,32.766,32.766,0.279,32.766,2.836,,,,,False,
1783703873.6319368,2026-07-10T10:17:53,11951,20260710_101749,,,,,,ground_idle,,,,,,,,,False,0.022429367527365685,0.0007107851561158895,0.9996753334999084,-0.12502853572368622,-0.15357032418251038,-0.08032523095607758,7.0,0.0,60.0,30.0,0.03,0.0010365124326199293,0.0003863746242132038,0.029613854363560677,0.00272071803919971,0.006849478464573622,0.005922796204686165,0.06116856262087822,1.1641045808792114,0.008315077982842922,0.02967381663620472,0.006000415422022343,2.753354465312441e-06,0.00017077625670935959,3.710850477218628,10.0,0.0,0.0,0.0,0.0,0.0,32.766,32.766,0.279,32.766,2.836,2018.652099609375,809.9503784179688,32.18803405761719,,False,
1783703873.6420715,2026-07-10T10:17:53,11957,20260710_101749,,,,,,ground_idle,,,,,,,,,False,0.022429367527365685,0.0007107851561158895,0.9996753334999084,-0.12502853572368622,-0.15357032418251038,-0.08032523095607758,-3.0,-3.0,62.0,30.0,0.03,0.0016575638437643647,-0.00045883993152529,0.029753390699625015,0.006381345447152853,0.001987811177968979,0.006268931552767754,0.10111124813556671,1.1390628814697266,0.009013524278998375,0.02967381663620472,0.006000415422022343,2.753354465312441e-06,0.00017077625670935959,3.710850477218628,10.0,0.0,0.0,0.0,0.0,0.0,32.766,32.766,0.279,32.766,2.836,2018.652099609375,809.9503784179688,32.18803405761719,,False,
1783703873.6522033,2026-07-10T10:17:53,11971,20260710_101749,,,,,,ground_idle,,,,,,,,,False,0.021829986944794655,0.004863434936851263,0.999829888343811,0.08150764554738998,0.022303752601146698,0.020814718678593636,0.0,0.0,59.0,30.0,0.03,0.0016575638437643647,-0.00045883993152529,0.029753390699625015,0.006381345447152853,0.001987811177968979,0.006268931552767754,0.10111124813556671,1.1390628814697266,0.009013524278998375,0.02967381663620472,0.006000415422022343,2.753354465312441e-06,0.00017077625670935959,3.710850477218628,10.0,0.0,0.0,0.0,0.0,0.0,32.766,32.766,0.279,32.766,2.836,2018.652099609375,809.9503784179688,32.18803405761719,,False,
1783703873.662342,2026-07-10T10:17:53,11981,20260710_101749,,,,,,ground_idle,,,,,,,,,False,0.021853335201740265,0.002592166420072317,1.0003770589828491,-0.2918395400047302,-0.2085057646036148,0.09991221874952316,0.0,0.0,71.0,30.0,0.03,0.001789388246834278,-0.0004204228171147406,0.029878512024879456,0.006722696125507355,0.0018937519052997231,0.006204138044267893,0.0997423306107521,1.1343294382095337,0.00848351325839758,0.02967381663620472,0.006000415422022343,2.753354465312441e-06,0.00017077625670935959,3.710850477218628,10.0,0.0,0.0,0.0,0.0,0.0,32.766,32.766,0.279,32.766,2.836,2018.652099609375,809.9503784179688,32.18803405761719,,False,
1783703873.6724818,2026-07-10T10:17:53,11991,20260710_101749,,,,,,ground_idle,,,,,,,,,False,0.020536605268716812,0.00011303259088890627,1.002536416053772,4.382650877232663e-05,0.2759600281715393,-0.05974969267845154,-1.0,0.0,50.0,30.0,0.03,0.001789388246834278,-0.0004204228171147406,0.029878512024879456,0.006722696125507355,0.0018937519052997231,0.006204138044267893,0.0997423306107521,1.1343294382095337,0.00848351325839758,0.030002860352396965,0.00613392936065793,4.697331860370468e-06,0.0002207723882747814,3.7161290645599365,10.0,0.0,0.0,0.0,0.0,0.0,32.766,32.766,0.278,32.766,2.827,2018.652099609375,809.9503784179688,32.18803405761719,,False,
1783703873.6826572,2026-07-10T10:17:53,12001,20260710_101749,,,,,,ground_idle,,,,,,,,,False,0.024071022868156433,0.0008654718985781074,0.9993751645088196,-0.22873692214488983,0.15747064352035522,-0.10442870110273361,0.0,4.0,50.0,29.0,0.029,0.0008653629338368773,-0.00019499653717502952,0.02957853302359581,0.0013463329523801804,0.00321951718069613,0.004039480350911617,0.08812227100133896,1.1756627559661865,0.009403404779732227,0.030002860352396965,0.00613392936065793,4.697331860370468e-06,0.0002207723882747814,3.7161290645599365,10.0,0.0,0.0,0.0,0.0,0.0,32.766,32.766,0.278,32.766,2.827,2018.652099609375,809.9503784179688,32.18803405761719,,False,
1783703873.6928697,2026-07-10T10:17:53,12011,20260710_101749,,,,,,ground_idle,,,,,,,,,False,0.022425487637519836,0.0027845229487866163,0.9989349246025085,0.25240281224250793,0.3150550127029419,-0.08471102267503738,0.0,-3.0,62.0,29.0,0.029,0.0008653629338368773,-0.00019499653717502952,0.02957853302359581,0.0013463329523801804,0.00321951718069613,0.004039480350911617,0.08812227100133896,1.1756627559661865,0.009403404779732227,0.030002860352396965,0.00613392936065793,4.697331860370468e-06,0.0002207723882747814,3.7161290645599365,10.0,0.0,0.0,0.0,0.0,0.0,32.766,32.766,0.278,32.766,2.827,2018.652099609375,809.9503784179688,32.18803405761719,,False,
1783703873.7030594,2026-07-10T10:17:53,12021,20260710_101749,,,,,,ground_idle,,,,,,,,,False,0.019943304359912872,0.004040046129375696,1.0009419918060303,-0.07989432662725449,0.16620340943336487,-0.039397820830345154,1.0,-1.0,62.0,29.0,0.029,0.001766385743394494,-0.00042280470370315015,0.029664773494005203,0.006250580307096243,0.0014720032922923565,0.004284911789000034,0.10002925992012024,1.1356375217437744,0.008988718502223492,0.030002860352396965,0.00613392936065793,4.697331860370468e-06,0.0002207723882747814,3.7161290645599365,10.0,0.0,0.0,0.0,0.0,0.0,32.766,32.766,0.278,32.766,2.827,2018.652099609375,809.9503784179688,32.18803405761719,,False,
1783703873.7134411,2026-07-10T10:17:53,12031,20260710_101749,,,,,,ground_idle,,,,,,,,,False,0.02247115969657898,0.0010342405876144767,1.0000771284103394,0.03753973916172981,-0.09479402750730515,0.0064461068250238895,0.0,4.0,60.0,29.0,0.029,0.001766385743394494,-0.00042280470370315015,0.029664773494005203,0.006250580307096243,0.0014720032922923565,0.004284911789000034,0.10002925992012024,1.1356375217437744,0.008988718502223492,0.030002860352396965,0.00613392936065793,4.697331860370468e-06,0.0002207723882747814,3.7161290645599365,10.0,0.0,0.0,0.0,0.0,0.0,32.766,32.766,0.278,32.766,2.827,2018.652099609375,809.9503784179688,32.18803405761719,,False,
1783703873.7236562,2026-07-10T10:17:53,12041,20260710_101749,,,,,,ground_idle,,,,,,,,,False,0.02247115969657898,0.0010342405876144767,1.0000771284103394,0.03753973916172981,-0.09479402750730515,0.0064461068250238895,0.0,-4.0,69.0,33.0,0.033,0.0017293060664087534,-0.0004210909828543663,0.031041570007801056,0.005899923387914896,0.001602796372026205,0.011086956597864628,0.10018856823444366,1.1392600536346436,0.009137914516031742,0.03115275502204895,0.011023864150047302,2.7533619686437305e-06,0.00017077778466045856,3.7161290645599365,10.0,0.0,0.0,0.0,0.0,0.0,32.766,32.766,0.278,32.766,2.827,2018.652099609375,809.95068359375,32.19412612915039,,False,
1783703873.7338297,2026-07-10T10:17:53,12051,20260710_101749,,,,,,ground_idle,,,,,,,,,False,0.0207692701369524,0.0031034634448587894,1.0005733966827393,0.03815249353647232,0.01908794231712818,0.05786552280187607,0.0,0.0,60.0,33.0,0.033,0.0017293060664087534,-0.0004210909828543663,0.031041570007801056,0.005899923387914896,0.001602796372026205,0.011086956597864628,0.10018856823444366,1.1392600536346436,0.009137914516031742,0.03115275502204895,0.011023864150047302,2.7533619686437305e-06,0.00017077778466045856,3.7161290645599365,10.0,0.0,0.0,0.0,0.0,0.0,32.766,32.766,0.278,32.766,2.827,2018.652099609375,809.95068359375,32.19412612915039,,False,
1783703873.7440095,2026-07-10T10:17:53,12061,20260710_101749,,,,,,ground_idle,,,,,,,,,False,0.023898709565401077,0.0013023210922256112,1.0002108812332153,0.06628777831792831,-0.1286226063966751,-0.0923137217760086,3.0,2.0,57.0,33.0,0.033,0.0013206981820985675,-0.0011046326253563166,0.03126893937587738,0.003268793225288391,-0.0021965408232063055,0.01129018422216177,0.13160113990306854,1.1596750020980835,0.01098175160586834,0.03115275502204895,0.011023864150047302,2.7533619686437305e-06,0.00017077778466045856,3.7161290645599365,10.0,0.0,0.0,0.0,0.0,0.0,32.766,32.766,0.278,32.766,2.827,2018.652099609375,809.95068359375,32.19412612915039,,False,
1783703873.754307,2026-07-10T10:17:53,12071,20260710_101749,,,,,,ground_idle,,,,,,,,,False,0.020656051114201546,0.0020318259485065937,0.9997830390930176,0.13100653886795044,0.030339132994413376,-0.18609893321990967,-4.0,-2.0,60.0,33.0,0.033,0.0013206981820985675,-0.0011046326253563166,0.03126893937587738,0.003268793225288391,-0.0021965408232063055,0.01129018422216177,0.13160113990306854,1.1596750020980835,0.01098175160586834,0.03115275502204895,0.011023864150047302,2.7533619686437305e-06,0.00017077778466045856,3.7161290645599365,10.0,0.0,0.0,0.0,0.0,0.0,32.766,32.766,0.278,32.766,2.827,2018.652099609375,809.95068359375,32.19412612915039,,False,
1783703873.7644784,2026-07-10T10:17:53,12081,20260710_101749,,,,,,ground_idle,,,,,,,,,False,0.021622203290462494,0.003061185125261545,0.9977375268936157,-0.113055020570755,-0.016362812370061874,0.007959432899951935,3.0,1.0,66.0,33.0,0.033,0.001532760332338512,-0.0008747575921006501,0.03150581568479538,0.0042799715884029865,-0.0009504270856268704,0.011481954716145992,0.12404453754425049,1.1520916223526,0.011204554699361324,0.03115275502204895,0.011023864150047302,2.7533619686437305e-06,0.00017077778466045856,3.7161290645599365,10.0,0.0,0.0,0.0,0.0,0.0,32.766,32.766,0.278,32.766,2.827,2018.652099609375,809.95068359375,32.19412612915039,,False,
1783703873.774646,2026-07-10T10:17:53,12091,20260710_101749,,,,,,ground_idle,,,,,,,,,False,0.02203766070306301,0.0030301157385110855,0.9983311295509338,0.03071042336523533,0.09405993670225143,-0.17970488965511322,1.0,2.0,45.0,33.0,0.033,0.001532760332338512,-0.0008747575921006501,0.03150581568479538,0.0042799715884029865,-0.0009504270856268704,0.011481954716145992,0.12404453754425049,1.1520916223526,0.011204554699361324,0.0317356139421463,0.011252615600824356,4.6973550524853636e-06,0.00022077080211602151,3.7161290645599365,10.0,0.0,0.0,0.0,0.0,0.0,0.269,32.766,0.274,32.766,2.842,2018.652099609375,809.95068359375,32.19412612915039,,False,
1783703873.7848077,2026-07-10T10:17:53,12101,20260710_101749,,,,,,ground_idle,,,,,,,,,False,0.021304022520780563,0.002128570107743144,1.0003868341445923,0.12381571531295776,-0.13008485734462738,-0.20108634233474731,-3.0,1.0,54.0,27.0,0.027,0.0008791266591288149,-0.00042512110667303205,0.02970748022198677,0.0006456573028117418,0.0016812712419778109,0.0006705910200253129,0.10293109714984894,1.1811363697052002,0.012065966613590717,0.0317356139421463,0.011252615600824356,4.6973550524853636e-06,0.00022077080211602151,3.7161290645599365,10.0,0.0,0.0,0.0,0.0,0.0,0.269,32.766,0.274,32.766,2.842,2018.652099609375,809.95068359375,32.19412612915039,,False,
1783703873.7949913,2026-07-10T10:17:53,12111,20260710_101749,,,,,,ground_idle,,,,,,,,,False,0.021604884415864944,0.000994334346614778,1.0009950399398804,0.04791102185845375,0.04639723524451256,0.08903530240058899,-4.0,0.0,58.0,27.0,0.027,0.0008791266591288149,-0.00042512110667303205,0.02970748022198677,0.0006456573028117418,0.0016812712419778109,0.0006705910200253129,0.10293109714984894,1.1811363697052002,0.012065966613590717,0.0317356139421463,0.011252615600824356,4.6973550524853636e-06,0.00022077080211602151,3.7161290645599365,10.0,0.0,0.0,0.0,0.0,0.0,0.269,32.766,0.274,32.766,2.842,2018.652099609375,809.95068359375,32.19412612915039,,False,
1783703873.8064713,2026-07-10T10:17:53,12125,20260710_101749,,,,,,ground_idle,,,,,,,,,False,0.02298806421458721,0.0032073436304926872,0.9983951449394226,-0.09571816772222519,-0.3569519519805908,0.12310357391834259,-1.0,3.0,64.0,27.0,0.027,0.001975627848878503,-0.0006503720069304109,0.02973225899040699,0.0066155800595879555,0.00022438954329118133,0.0006272597820498049,0.11764973402023315,1.1340479850769043,0.011185788549482822,0.0317356139421463,0.011252615600824356,4.6973550524853636e-06,0.00022077080211602151,3.7161290645599365,10.0,0.0,0.0,0.0,0.0,0.0,0.269,32.766,0.274,32.766,2.842,2018.652099609375,809.95068359375,32.19412612915039,,False,
1783703873.816728,2026-07-10T10:17:53,12135,20260710_101749,,,,,,ground_idle,,,,,,,,,False,0.022422293201088905,0.002774385968223214,1.0006840229034424,0.01671525277197361,0.33198174834251404,-0.003115365281701088,-1.0,-3.0,70.0,29.0,0.029,0.001975627848878503,-0.0006503720069304109,0.02973225899040699,0.0066155800595879555,0.00022438954329118133,0.0006272597820498049,0.11764973402023315,1.1340479850769043,0.011185788549482822,0.0317356139421463,0.011252615600824356,4.6973550524853636e-06,0.00022077080211602151,3.7161290645599365,10.0,0.0,0.0,0.0,0.0,0.0,0.269,32.766,0.274,32.766,2.842,2018.652099609375,809.95068359375,32.19412612915039,,False,
1783703873.8270135,2026-07-10T10:17:53,12145,20260710_101749,,,,,,ground_idle,,,,,,,,,False,0.02190680056810379,0.0015549915842711926,0.9996165037155151,-0.0715707466006279,0.15305113792419434,0.04597357660531998,1.0,0.0,66.0,29.0,0.029,0.0019661260303109884,-0.00021444354206323624,0.029454294592142105,0.006458456628024578,0.0024715529289096594,-0.0008925324073061347,0.0991387665271759,1.1381728649139404,0.011662159115076065,0.02944561466574669,-0.0009802681161090732,2.7533369575394318e-06,0.00017077843949664384,3.710850477218628,10.0,0.0,0.0,0.0,0.0,0.0,0.269,32.766,0.274,32.766,2.842,2018.7996826171875,809.9376220703125,32.19453048706055,,False,
1783703873.837274,2026-07-10T10:17:53,12157,20260710_101749,,,,,,ground_idle,,,,,,,,,False,0.019598279148340225,0.0019049096154049039,0.9993813037872314,0.18823474645614624,-0.12721168994903564,0.07818116992712021,3.0,5.0,55.0,29.0,0.029,0.0008848590077832341,-0.001080273650586605,0.029446043074131012,0.0003714692429639399,-0.0023153922520577908,-0.000800586654804647,0.13673901557922363,1.1860142946243286,0.012779979966580868,0.02944561466574669,-0.0009802681161090732,2.7533369575394318e-06,0.00017077843949664384,3.710850477218628,10.0,0.0,0.0,0.0,0.0,0.0,0.269,32.766,0.274,32.766,2.842,2018.7996826171875,809.9376220703125,32.19453048706055,,False,
1783703873.847519,2026-07-10T10:17:53,12165,20260710_101749,,,,,,ground_idle,,,,,,,,,False,0.020374827086925507,0.002344540087506175,1.0018970966339111,-0.1923684924840927,-0.22447581589221954,0.12572161853313446,-2.0,-4.0,59.0,29.0,0.029,0.0008848590077832341,-0.001080273650586605,0.029446043074131012,0.0003714692429639399,-0.0023153922520577908,-0.000800586654804647,0.13673901557922363,1.1860142946243286,0.012779979966580868,0.02944561466574669,-0.0009802681161090732,2.7533369575394318e-06,0.00017077843949664384,3.710850477218628,10.0,0.0,0.0,0.0,0.0,0.0,0.269,32.766,0.274,32.766,2.842,2018.7996826171875,809.9376220703125,32.19453048706055,,False,
1783703873.8577313,2026-07-10T10:17:53,12177,20260710_101749,,,,,,ground_idle,,,,,,,,,False,0.024287380278110504,0.0025346027687191963,1.0007730722427368,0.10869524627923965,0.13674990832805634,-0.21552810072898865,-2.0,0.0,69.0,29.0,0.029,0.0017409753054380417,-0.00021929170179646462,0.029438000172376633,0.004606338683515787,0.0024400148540735245,-0.0006017900304868817,0.0982789620757103,1.149215817451477,0.011275639757514,0.02944561466574669,-0.0009802681161090732,2.7533369575394318e-06,0.00017077843949664384,3.710850477218628,10.0,0.0,0.0,0.0,0.0,0.0,0.269,32.766,0.274,32.766,2.842,2018.7996826171875,809.9376220703125,32.19453048706055,,False,
1783703873.867997,2026-07-10T10:17:53,12185,20260710_101749,,,,,,ground_idle,,,,,,,,,False,0.023714689537882805,0.002608979819342494,1.0014336109161377,-0.10450433939695358,-0.02846202626824379,-0.06924173980951309,0.0,0.0,52.0,29.0,0.029,0.0017409753054380417,-0.00021929170179646462,0.029438000172376633,0.004606338683515787,0.0024400148540735245,-0.0006017900304868817,0.0982789620757103,1.149215817451477,0.011275639757514,0.02944561466574669,-0.0009802681161090732,2.7533369575394318e-06,0.00017077843949664384,3.710850477218628,10.0,0.0,0.0,0.0,0.0,0.0,0.269,32.766,0.274,32.766,2.842,2018.7996826171875,809.9376220703125,32.19453048706055,,False,
1783703873.878329,2026-07-10T10:17:53,12197,20260710_101749,,,,,,ground_idle,,,,,,,,,False,0.02526141330599785,0.0021653829608112574,1.0004770755767822,0.07320492714643478,-0.11988109350204468,-0.029786735773086548,0.0,0.0,54.0,29.0,0.029,0.0018434268422424793,-0.00016848469385877252,0.029244963079690933,0.005355089902877808,0.0026371784042567015,-0.0012785461731255054,0.09998365491628647,1.1442313194274902,0.01117671187967062,0.029428798705339432,-0.0004278890846762806,4.697312760981731e-06,0.00022077339235693216,3.7161290645599365,10.0,0.0,0.0,0.0,0.0,0.0,32.766,32.766,0.274,32.766,2.855,2018.7996826171875,809.9376220703125,32.19453048706055,,False,
1783703873.888559,2026-07-10T10:17:53,12205,20260710_101749,,,,,,ground_idle,,,,,,,,,False,0.0247891154140234,0.0027887679170817137,1.0008152723312378,-0.027482453733682632,-0.07653195410966873,0.13366204500198364,0.0,2.0,61.0,29.0,0.029,0.0018434268422424793,-0.00016848469385877252,0.029244963079690933,0.005355089902877808,0.0026371784042567015,-0.0012785461731255054,0.09998365491628647,1.1442313194274902,0.01117671187967062,0.029428798705339432,-0.0004278890846762806,4.697312760981731e-06,0.00022077339235693216,3.7161290645599365,10.0,0.0,0.0,0.0,0.0,0.0,32.766,32.766,0.274,32.766,2.855,2018.7996826171875,809.9376220703125,32.19453048706055,,False,
1783703873.898791,2026-07-10T10:17:53,12217,20260710_101749,,,,,,ground_idle,,,,,,,,,False,0.02107885852456093,0.0023184670135378838,0.9980975389480591,0.23081229627132416,0.17715111374855042,0.2583680748939514,0.0,-2.0,60.0,29.0,0.029,0.0018263488309457898,-0.00017365271924063563,0.029223822057247162,0.0056954966858029366,0.002482978394255042,-0.0010578291257843375,0.1025119498372078,1.1428998708724976,0.013944881968200207,0.029428798705339432,-0.0004278890846762806,4.697312760981731e-06,0.00022077339235693216,3.7161290645599365,10.0,0.0,0.0,0.0,0.0,0.0,32.766,32.766,0.274,32.766,2.855,2018.7996826171875,809.9376220703125,32.19453048706055,,False,
1783703873.9089723,2026-07-10T10:17:53,12225,20260710_101749,,,,,,ground_idle,,,,,,,,,False,0.022073805332183838,0.0017222792375832796,0.9983778595924377,-0.08650588989257812,0.21176981925964355,0.07482877373695374,3.0,1.0,59.0,29.0,0.029,0.0018263488309457898,-0.00017365271924063563,0.029223822057247162,0.0056954966858029366,0.002482978394255042,-0.0010578291257843375,0.1025119498372078,1.1428998708724976,0.013944881968200207,0.029428798705339432,-0.0004278890846762806,4.697312760981731e-06,0.00022077339235693216,3.7161290645599365,10.0,0.0,0.0,0.0,0.0,0.0,32.766,32.766,0.274,32.766,2.855,2018.7996826171875,809.9376220703125,32.19453048706055,,False,
1783703873.9192545,2026-07-10T10:17:53,12238,20260710_101749,,,,,,ground_idle,,,,,,,,,False,0.02206183597445488,0.0034099372569471598,0.9982543587684631,0.054463595151901245,0.08757583051919937,-0.023022962734103203,-1.0,-1.0,71.0,26.0,0.026,0.0018377727828919888,-0.0006373851792886853,0.02793670818209648,0.005488492548465729,-4.957515193382278e-05,-0.007988971658051014,0.121852807700634,1.1420981884002686,0.014172783121466637,0.027856364846229553,-0.008191841654479504,2.7533326374395983e-06,0.0001707781048025936,3.7161290645599365,10.0,0.0,0.0,0.0,0.0,0.0,32.766,32.766,0.274,32.766,2.855,2018.7996826171875,809.9376220703125,32.19453048706055,,False,
1783703873.9294245,2026-07-10T10:17:53,12245,20260710_101749,,,,,,ground_idle,,,,,,,,,False,0.02240230143070221,0.0020869607105851173,0.9992986917495728,-0.1165967807173729,0.10373660176992416,0.013452074490487576,0.0,0.0,72.0,26.0,0.026,0.0018377727828919888,-0.0006373851792886853,0.02793670818209648,0.005488492548465729,-4.957515193382278e-05,-0.007988971658051014,0.121852807700634,1.1420981884002686,0.014172783121466637,0.027856364846229553,-0.008191841654479504,2.7533326374395983e-06,0.0001707781048025936,3.710850477218628,10.0,0.0,0.0,0.0,0.0,0.0,32.766,32.766,0.274,32.766,2.855,2018.7723388671875,809.9401245117188,32.20119094848633,,False,
1783703873.9395905,2026-07-10T10:17:53,12257,20260710_101749,,,,,,ground_idle,,,,,,,,,False,0.02230534330010414,0.0013997628120705485,0.9997617602348328,-0.004668357782065868,0.1663719117641449,0.2562738358974457,0.0,-1.0,62.0,26.0,0.026,0.002129888627678156,-0.0006363190477713943,0.02777433954179287,0.006915753241628408,2.524252158764284e-05,-0.008157391101121902,0.12143448740243912,1.1298562288284302,0.01512891985476017,0.027856364846229553,-0.008191841654479504,2.7533326374395983e-06,0.0001707781048025936,3.710850477218628,10.0,0.0,0.0,0.0,0.0,0.0,32.766,32.766,0.274,32.766,2.855,2018.7723388671875,809.9401245117188,32.20119094848633,,False,
1783703873.949758,2026-07-10T10:17:53,12265,20260710_101749,,,,,,ground_idle,,,,,,,,,False,0.022947844117879868,0.0034754162188619375,0.9979352951049805,-0.2420291155576706,-0.18894754350185394,-0.004125404637306929,2.0,5.0,55.0,26.0,0.026,0.002129888627678156,-0.0006363190477713943,0.02777433954179287,0.006915753241628408,2.524252158764284e-05,-0.008157391101121902,0.12143448740243912,1.1298562288284302,0.01512891985476017,0.027856364846229553,-0.008191841654479504,2.7533326374395983e-06,0.0001707781048025936,3.710850477218628,10.0,0.0,0.0,0.0,0.0,0.0,32.766,32.766,0.274,32.766,2.855,2018.7723388671875,809.9401245117188,32.20119094848633,,False,
1783703873.9599214,2026-07-10T10:17:53,12277,20260710_101749,,,,,,ground_idle,,,,,,,,,False,0.019801447167992592,0.002441900782287121,0.9960883855819702,-0.02973327785730362,-0.37598446011543274,0.07075218856334686,0.0,0.0,62.0,26.0,0.026,0.0009427338372915983,-0.0011303559876978397,0.027619337663054466,0.0007182683330029249,-0.0024077289272099733,-0.008296888321638107,0.1382950395345688,1.1825052499771118,0.014664221554994583,0.027856364846229553,-0.008191841654479504,2.7533326374395983e-06,0.0001707781048025936,3.710850477218628,10.0,0.0,0.0,0.0,0.0,0.0,32.766,32.766,0.274,32.766,2.855,2018.7723388671875,809.9401245117188,32.20119094848633,,False,
1783703873.9702594,2026-07-10T10:17:53,12289,20260710_101749,,,,,,ground_idle,,,,,,,,,False,0.020197225734591484,0.004424758721143007,0.9988157153129578,0.3107256591320038,0.13026417791843414,0.05895957350730896,-3.0,-4.0,54.0,26.0,0.026,0.0009427338372915983,-0.0011303559876978397,0.027619337663054466,0.0007182683330029249,-0.0024077289272099733,-0.008296888321638107,0.1382950395345688,1.1825052499771118,0.014664221554994583,0.027456531301140785,-0.008854485116899014,4.697305485024117e-06,0.00022077480389270931,3.7161290645599365,10.0,0.0,0.0,0.0,0.0,0.0,32.766,32.766,0.274,32.766,2.855,2018.7723388671875,809.9401245117188,32.20119094848633,,False,
1783703873.9804764,2026-07-10T10:17:53,12297,20260710_101749,,,,,,ground_idle,,,,,,,,,False,0.023536719381809235,0.002355387434363365,1.000630497932434,0.025721115991473198,-0.1199176162481308,0.09416511654853821,0.0,7.0,57.0,31.0,0.031,0.00020354331354610622,-0.000398479140130803,0.02898288518190384,-0.0035097647923976183,0.0017098835669457912,-0.0007753025856800377,0.10806839913129807,1.2107795476913452,0.01606481336057186,0.027456531301140785,-0.008854485116899014,4.697305485024117e-06,0.00022077480389270931,3.7161290645599365,10.0,0.0,0.0,0.0,0.0,0.0,32.766,32.766,0.276,32.766,2.837,2018.7723388671875,809.9401245117188,32.20119094848633,,False,
1783703873.9906874,2026-07-10T10:17:53,12305,20260710_101749,,,,,,ground_idle,,,,,,,,,False,0.025148721411824226,0.003614566056057811,1.0011537075042725,-0.001914927619509399,0.07579443603754044,0.046422600746154785,-1.0,-7.0,66.0,31.0,0.031,0.00020354331354610622,-0.000398479140130803,0.02898288518190384,-0.0035097647923976183,0.0017098835669457912,-0.0007753025856800377,0.10806839913129807,1.2107795476913452,0.01606481336057186,0.027456531301140785,-0.008854485116899014,4.697305485024117e-06,0.00022077480389270931,3.7161290645599365,10.0,0.0,0.0,0.0,0.0,0.0,32.766,32.766,0.276,32.766,2.837,2018.7723388671875,809.9401245117188,32.20119094848633,,False,
1783703874.0008528,2026-07-10T10:17:54,12317,20260710_101749,,,,,,ground_idle,,,,,,,,,False,0.02388317510485649,0.002958922181278467,1.0006849765777588,0.03696252033114433,0.32857081294059753,0.0194337647408247,3.0,2.0,61.0,31.0,0.031,0.0014137020334601402,-0.0008788114646449685,0.02899114601314068,0.0034166211262345314,-0.0007957315538078547,-0.000423806079197675,0.13080835342407227,1.1568971872329712,0.015120595693588257,0.027456531301140785,-0.008854485116899014,4.697305485024117e-06,0.00022077480389270931,3.7161290645599365,10.0,0.0,0.0,0.0,0.0,0.0,32.766,32.766,0.276,32.766,2.837,2018.7723388671875,809.9401245117188,32.20119094848633,,False,
1783703874.0110219,2026-07-10T10:17:54,12325,20260710_101749,,,,,,ground_idle,,,,,,,,,False,0.021230386570096016,0.0012039582943543792,1.0000438690185547,-0.3086327910423279,0.10185934603214264,-0.016109861433506012,0.0,0.0,61.0,31.0,0.031,0.0014137020334601402,-0.0008788114646449685,0.02899114601314068,0.0034166211262345314,-0.0007957315538078547,-0.000423806079197675,0.13080835342407227,1.1568971872329712,0.015120595693588257,0.027456531301140785,-0.008854485116899014,4.697305485024117e-06,0.00022077480389270931,3.7161290645599365,10.0,0.0,0.0,0.0,0.0,0.0,32.766,32.766,0.276,32.766,2.837,2018.7723388671875,809.9401245117188,32.20119094848633,,False,
1783703874.0212147,2026-07-10T10:17:54,12340,20260710_101749,,,,,,ground_idle,,,,,,,,,False,0.021772176027297974,0.00077129399869591,1.0011999607086182,0.03981376439332962,0.49526774883270264,-0.01832357421517372,0.0,0.0,67.0,26.0,0.026,0.001507710898295045,-0.0008926439331844449,0.027803635224699974,0.003987541422247887,-0.0007860838668420911,-0.006507567595690489,0.12936174869537354,1.1506050825119019,0.014559795148670673,0.02773916721343994,-0.006465430837124586,2.7533249067346333e-06,0.0001707842602627352,3.7161290645599365,10.0,0.0,0.0,0.0,0.0,0.0,32.766,32.766,0.276,32.766,2.837,2018.7723388671875,809.9401245117188,32.20119094848633,,False,
1783703874.0313807,2026-07-10T10:17:54,12351,20260710_101749,,,,,,ground_idle,,,,,,,,,False,0.021980853751301765,0.0016556116752326488,1.0013678073883057,0.18504667282104492,0.16152167320251465,-0.017686672508716583,-1.0,-2.0,66.0,26.0,0.026,0.001507710898295045,-0.0008926439331844449,0.027803635224699974,0.003987541422247887,-0.0007860838668420911,-0.006507567595690489,0.12936174869537354,1.1506050825119019,0.014559795148670673,0.02773916721343994,-0.006465430837124586,2.7533249067346333e-06,0.0001707842602627352,3.7161290645599365,10.0,0.0,0.0,0.0,0.0,0.0,32.766,32.766,0.276,32.766,2.837,2018.8271484375,809.9351196289062,32.2064208984375,,False,
1783703874.041542,2026-07-10T10:17:54,12357,20260710_101749,,,,,,ground_idle,,,,,,,,,False,0.021980853751301765,0.0016556116752326488,1.0013678073883057,0.18504667282104492,0.16152167320251465,-0.017686672508716583,0.0,0.0,63.0,26.0,0.026,0.0020805492531508207,-0.0006232362356968224,0.027674812823534012,0.0069076684303581715,0.0005164712201803923,-0.006388145033270121,0.118637815117836,1.129719614982605,0.014610694721341133,0.02773916721343994,-0.006465430837124586,2.7533249067346333e-06,0.0001707842602627352,3.7161290645599365,10.0,0.0,0.0,0.0,0.0,0.0,32.766,32.766,0.276,32.766,2.837,2018.8271484375,809.9351196289062,32.2064208984375,,False,
1783703874.051715,2026-07-10T10:17:54,12371,20260710_101749,,,,,,ground_idle,,,,,,,,,False,0.021437302231788635,0.0006305040442384779,0.9994701147079468,0.2805371880531311,0.3205617368221283,-0.19759812951087952,-2.0,0.0,62.0,26.0,0.026,0.0020805492531508207,-0.0006232362356968224,0.027674812823534012,0.0069076684303581715,0.0005164712201803923,-0.006388145033270121,0.118637815117836,1.129719614982605,0.014610694721341133,0.02773916721343994,-0.006465430837124586,2.7533249067346333e-06,0.0001707842602627352,3.7161290645599365,10.0,0.0,0.0,0.0,0.0,0.0,32.766,32.766,0.276,32.766,2.837,2018.8271484375,809.9351196289062,32.2064208984375,,False,
1783703874.0618875,2026-07-10T10:17:54,12381,20260710_101749,,,,,,ground_idle,,,,,,,,,False,0.024056285619735718,0.003013319568708539,0.9999213218688965,0.099933922290802,0.15530548989772797,-0.13668981194496155,3.0,0.0,59.0,26.0,0.026,0.0020428430289030075,-0.0009027323103509843,0.027554558590054512,0.006182179786264896,-0.0012115052668377757,-0.006071935873478651,0.1340583711862564,1.1346405744552612,0.013934184797108173,0.02773916721343994,-0.006465430837124586,2.7533249067346333e-06,0.0001707842602627352,3.7161290645599365,10.0,0.0,0.0,0.0,0.0,0.0,32.766,32.766,0.276,32.766,2.837,2018.8271484375,809.9351196289062,32.2064208984375,,False,
1783703874.0720983,2026-07-10T10:17:54,12390,20260710_101749,,,,,,ground_idle,,,,,,,,,False,0.024056285619735718,0.003013319568708539,0.9999213218688965,0.099933922290802,0.15530548989772797,-0.13668981194496155,-3.0,0.0,51.0,26.0,0.026,0.0020428430289030075,-0.0009027323103509843,0.027554558590054512,0.006182179786264896,-0.0012115052668377757,-0.006071935873478651,0.1340583711862564,1.1346405744552612,0.013934184797108173,0.027436556294560432,-0.0061989277601242065,4.69728638563538e-06,0.00022077278117649257,3.7161290645599365,10.0,0.0,0.0,0.0,0.0,0.0,0.265,32.766,0.275,32.766,2.846,2018.8271484375,809.9351196289062,32.2064208984375,,False,
1783703874.082283,2026-07-10T10:17:54,12401,20260710_101749,,,,,,ground_idle,,,,,,,,,False,0.02288290299475193,-1.25328624562826e-05,1.0005096197128296,0.2105046808719635,0.044149454683065414,-0.044570617377758026,0.0,0.0,57.0,28.0,0.028,0.0020878270734101534,-8.595136023359373e-05,0.027678119018673897,0.006311627570539713,0.002809585304930806,-0.004805499222129583,0.1026330515742302,1.135168194770813,0.012928431853652,0.027436556294560432,-0.0061989277601242065,4.69728638563538e-06,0.00022077278117649257,3.7161290645599365,10.0,0.0,0.0,0.0,0.0,0.0,0.265,32.766,0.275,32.766,2.846,2018.8271484375,809.9351196289062,32.2064208984375,,False,
1783703874.0924664,2026-07-10T10:17:54,12411,20260710_101749,,,,,,ground_idle,,,,,,,,,False,0.021135913208127022,0.0008707896922715008,0.9986734390258789,-0.058340881019830704,0.01617763750255108,0.007542578969150782,1.0,0.0,64.0,28.0,0.028,0.0020878270734101534,-8.595136023359373e-05,0.027678119018673897,0.006311627570539713,0.002809585304930806,-0.004805499222129583,0.1026330515742302,1.135168194770813,0.012928431853652,0.027436556294560432,-0.0061989277601242065,4.69728638563538e-06,0.00022077278117649257,3.7161290645599365,10.0,0.0,0.0,0.0,0.0,0.0,0.265,32.766,0.275,32.766,2.846,2018.8271484375,809.9351196289062,32.2064208984375,,False,
1783703874.102654,2026-07-10T10:17:54,12421,20260710_101749,,,,,,ground_idle,,,,,,,,,False,0.019433800131082535,0.0006826710887253284,0.9985064268112183,0.12502871453762054,-0.3966776728630066,0.03624941408634186,0.0,0.0,60.0,28.0,0.028,0.0021318343933671713,-0.0003571433189790696,0.027583319693803787,0.006599907763302326,0.001062769559212029,-0.00478031812235713,0.11492133885622025,1.1361209154129028,0.01195044070482254,0.027436556294560432,-0.0061989277601242065,4.69728638563538e-06,0.00022077278117649257,3.7161290645599365,10.0,0.0,0.0,0.0,0.0,0.0,0.265,32.766,0.275,32.766,2.846,2018.8271484375,809.9351196289062,32.2064208984375,,False,
1783703874.1158316,2026-07-10T10:17:54,12435,20260710_101749,,,,,,ground_idle,,,,,,,,,False,0.020500026643276215,0.002753937616944313,0.9992600083351135,-0.03527588024735451,0.2387101650238037,0.022220129147171974,2.0,0.0,64.0,25.0,0.025,0.0021318343933671713,-0.0003571433189790696,0.027583319693803787,0.006599907763302326,0.001062769559212029,-0.00478031812235713,0.11492133885622025,1.1361209154129028,0.01195044070482254,0.027436556294560432,-0.0061989277601242065,4.69728638563538e-06,0.00022077278117649257,3.7161290645599365,10.0,0.0,0.0,0.0,0.0,0.0,0.265,32.766,0.275,32.766,2.846,2018.8271484375,809.9351196289062,32.2064208984375,,False,
1783703874.126031,2026-07-10T10:17:54,12441,20260710_101749,,,,,,ground_idle,,,,,,,,,False,0.02280394360423088,0.0020704553462564945,1.0022164583206177,0.05276591330766678,-0.06264804303646088,-0.12317769229412079,2.0,0.0,64.0,25.0,0.025,0.002191294217482209,-0.0009347433224320412,0.026502998545765877,0.006358242593705654,-0.002121292520314455,-0.01014567818492651,0.13837715983390808,1.135685682296753,0.011505126953125,0.02640138566493988,-0.010296414606273174,2.7533260436030105e-06,0.00017078311066143215,3.710850477218628,10.0,0.0,0.0,0.0,0.0,0.0,0.265,32.766,0.275,32.766,2.846,2018.8106689453125,809.9366455078125,32.21083068847656,,False,
1783703874.136455,2026-07-10T10:17:54,12456,20260710_101749,,,,,,ground_idle,,,,,,,,,False,0.021959790959954262,0.001521903439424932,1.0002624988555908,0.10651816427707672,0.015978241339325905,0.05229593440890312,0.0,1.0,66.0,25.0,0.025,0.0015885783359408379,-0.001202471205033362,0.026302030310034752,0.003095314372330904,-0.003177390433847904,-0.009991302154958248,0.13837715983390808,1.135685682296753,0.011505126953125,0.02640138566493988,-0.010296414606273174,2.7533260436030105e-06,0.00017078311066143215,3.710850477218628,10.0,0.0,0.0,0.0,0.0,0.0,0.265,32.766,0.275,32.766,2.846,2018.8106689453125,809.9366455078125,32.21083068847656,,False,
1783703874.1466954,2026-07-10T10:17:54,12465,20260710_101749,,,,,,ground_idle,,,,,,,,,False,0.02018948830664158,0.003154402133077383,0.9976797103881836,0.056361883878707886,-0.11828593164682388,-0.09744817763566971,0.0,0.0,63.0,25.0,0.025,0.0015885783359408379,-0.001202471205033362,0.026302030310034752,0.003095314372330904,-0.003177390433847904,-0.009991302154958248,0.14628267288208008,1.159759283065796,0.010902432724833488,0.02640138566493988,-0.010296414606273174,2.7533260436030105e-06,0.00017078311066143215,3.710850477218628,10.0,0.0,0.0,0.0,0.0,0.0,0.265,32.766,0.275,32.766,2.846,2018.8106689453125,809.9366455078125,32.21083068847656,,False,
1783703874.1569066,2026-07-10T10:17:54,12476,20260710_101749,,,,,,ground_idle,,,,,,,,,False,0.021867191419005394,0.0036899212282150984,0.99896240234375,0.22151824831962585,-0.08241571485996246,-0.10238400101661682,-2.0,-2.0,56.0,25.0,0.025,0.002195302862673998,-0.0006407767068594694,0.026105402037501335,0.005911519285291433,-0.0001526103587821126,-0.010083637200295925,0.14628267288208008,1.159759283065796,0.010902432724833488,0.02640138566493988,-0.010296414606273174,2.7533260436030105e-06,0.00017078311066143215,3.710850477218628,10.0,0.0,0.0,0.0,0.0,0.0,0.265,32.766,0.275,32.766,2.846,2018.8106689453125,809.9366455078125,32.21083068847656,,False,
1783703874.1671035,2026-07-10T10:17:54,12485,20260710_101749,,,,,,ground_idle,,,,,,,,,False,0.020606858655810356,0.0019715328235179186,0.9987581968307495,-0.049538083374500275,0.12092272192239761,-0.10653986036777496,-2.0,8.0,44.0,25.0,0.025,0.002195302862673998,-0.0006407767068594694,0.026105402037501335,0.005911519285291433,-0.0001526103587821126,-0.010083637200295925,0.12202160060405731,1.1383984088897705,0.010999857448041439,0.02640138566493988,-0.010296414606273174,2.7533260436030105e-06,0.00017078311066143215,3.710850477218628,10.0,0.0,0.0,0.0,0.0,0.0,0.265,32.766,0.275,32.766,2.846,2018.8106689453125,809.9366455078125,32.21083068847656,,False,
1783703874.1773465,2026-07-10T10:17:54,12497,20260710_101749,,,,,,ground_idle,,,,,,,,,False,0.022193126380443573,0.0014887109864503145,1.0017423629760742,0.21021729707717896,0.3581829071044922,-0.0013696547830477357,0.0,-4.0,52.0,32.0,0.032,0.000997595489025116,-9.152449638349935e-05,0.02853422798216343,0.00011646438360912725,0.0025752491783350706,0.0034515243023633957,0.10439878702163696,1.1755726337432861,0.011820330284535885,0.02591334655880928,-0.010169231332838535,4.697286840382731e-06,0.00022077452740631998,3.7161290645599365,10.0,0.0,0.0,0.0,0.0,0.0,32.766,32.766,0.277,32.766,2.829,2018.8106689453125,809.9366455078125,32.21083068847656,,False,
1783703874.1875525,2026-07-10T10:17:54,12505,20260710_101749,,,,,,ground_idle,,,,,,,,,False,0.02107321098446846,0.004787371959537268,0.999914824962616,0.1193096786737442,-0.2641414403915405,-0.30175480246543884,3.0,-1.0,65.0,32.0,0.032,0.000997595489025116,-9.152449638349935e-05,0.02853422798216343,0.00011646438360912725,0.0025752491783350706,0.0034515243023633957,0.10439878702163696,1.1755726337432861,0.011820330284535885,0.02591334655880928,-0.010169231332838535,4.697286840382731e-06,0.00022077452740631998,3.7161290645599365,10.0,0.0,0.0,0.0,0.0,0.0,32.766,32.766,0.277,32.766,2.829,2018.8106689453125,809.9366455078125,32.21083068847656,,False,
1783703874.1977165,2026-07-10T10:17:54,12516,20260710_101749,,,,,,ground_idle,,,,,,,,,False,0.0213725958019495,0.00320752477273345,1.0022249221801758,-0.11020868271589279,-0.19724252820014954,0.13798977434635162,0.0,0.0,65.0,32.0,0.032,0.0012821113923564553,-0.0009432728984393179,0.028609344735741615,0.001671404461376369,-0.00147027219645679,0.0036931694485247135,0.10439878702163696,1.1755726337432861,0.011820330284535885,0.02591334655880928,-0.010169231332838535,4.697286840382731e-06,0.00022077452740631998,3.7161290645599365,10.0,0.0,0.0,0.0,0.0,0.0,32.766,32.766,0.277,32.766,2.829,2018.8106689453125,809.9366455078125,32.21083068847656,,False,
1783703874.207884,2026-07-10T10:17:54,12525,20260710_101749,,,,,,ground_idle,,,,,,,,,False,0.023042447865009308,0.002053512493148446,1.0015114545822144,-0.03186202049255371,-0.21236355602741241,-0.21775370836257935,-1.0,-4.0,65.0,32.0,0.032,0.0012821113923564553,-0.0009432728984393179,0.028609344735741615,0.001671404461376369,-0.00147027219645679,0.0036931694485247135,0.13770221173763275,1.1643438339233398,0.011067479848861694,0.02591334655880928,-0.010169231332838535,4.697286840382731e-06,0.00022077452740631998,3.7161290645599365,10.0,0.0,0.0,0.0,0.0,0.0,32.766,32.766,0.277,32.766,2.829,2018.8106689453125,809.9366455078125,32.21083068847656,,False,
1783703874.2180526,2026-07-10T10:17:54,12537,20260710_101749,,,,,,ground_idle,,,,,,,,,False,0.022945549339056015,0.0031808668281883,0.999245285987854,0.12783776223659515,0.33079445362091064,0.23075951635837555,-2.0,3.0,60.0,29.0,0.029,0.0015418953262269497,-0.00010244460281683132,0.02881689928472042,0.002928531728684902,0.002780243521556258,0.004763041157275438,0.10623950511217117,1.155764102935791,0.010118790902197361,0.02591334655880928,-0.010169231332838535,4.697286840382731e-06,0.00022077452740631998,3.7161290645599365,10.0,0.0,0.0,0.0,0.0,0.0,32.766,32.766,0.277,32.766,2.829,2018.8106689453125,809.9366455078125,32.21083068847656,,False,
1783703874.2282634,2026-07-10T10:17:54,12545,20260710_101749,,,,,,ground_idle,,,,,,,,,False,0.023891886696219444,0.0014055236242711544,0.9989954829216003,-0.00575037719681859,0.2678413689136505,-0.04520971700549126,4.0,0.0,66.0,29.0,0.029,0.0015418953262269497,-0.00010244460281683132,0.02881689928472042,0.002928531728684902,0.002780243521556258,0.004763041157275438,0.10623950511217117,1.155764102935791,0.010118790902197361,0.02886439859867096,0.004666601773351431,2.753325816229335e-06,0.00017078450764529407,3.710850477218628,10.0,0.0,0.0,0.0,0.0,0.0,32.766,32.766,0.277,32.766,2.829,2018.794189453125,809.9378662109375,32.21363067626953,,False,
1783703874.2384305,2026-07-10T10:17:54,12557,20260710_101749,,,,,,ground_idle,,,,,,,,,False,0.022397873923182487,0.002610457595437765,0.9995525479316711,0.18292677402496338,0.23012129962444305,-0.07851807028055191,0.0,0.0,66.0,29.0,0.029,0.0015603743959218264,-0.0012376693775877357,0.0289151631295681,0.003335238667204976,-0.0027032876387238503,0.004674093332141638,0.14907656610012054,1.152116060256958,0.007674684282392263,0.02886439859867096,0.004666601773351431,2.753325816229335e-06,0.00017078450764529407,3.710850477218628,10.0,0.0,0.0,0.0,0.0,0.0,32.766,32.766,0.277,32.766,2.829,2018.794189453125,809.9378662109375,32.21363067626953,,False,
1783703874.2486382,2026-07-10T10:17:54,12565,20260710_101749,,,,,,ground_idle,,,,,,,,,False,0.019550791010260582,0.002507684752345085,1.0001832246780396,-0.0011678357841446996,-0.4491353929042816,0.12193454056978226,-2.0,-3.0,70.0,29.0,0.029,0.0015603743959218264,-0.0012376693775877357,0.0289151631295681,0.003335238667204976,-0.0027032876387238503,0.004674093332141638,0.14907656610012054,1.152116060256958,0.007674684282392263,0.02886439859867096,0.004666601773351431,2.753325816229335e-06,0.00017078450764529407,3.710850477218628,10.0,0.0,0.0,0.0,0.0,0.0,32.766,32.766,0.277,32.766,2.829,2018.794189453125,809.9378662109375,32.21363067626953,,False,
1783703874.2588315,2026-07-10T10:17:54,12577,20260710_101749,,,,,,ground_idle,,,,,,,,,False,0.021991323679685593,0.00020384629897307605,1.0013762712478638,0.01453692838549614,0.42429348826408386,0.15609347820281982,-1.0,0.0,60.0,29.0,0.029,0.0023614743258804083,-0.00038799011963419616,0.029010431841015816,0.0069853984750807285,0.0015219001797959208,0.004698294214904308,0.11706633865833282,1.1264281272888184,0.009473069570958614,0.02886439859867096,0.004666601773351431,2.753325816229335e-06,0.00017078450764529407,3.710850477218628,10.0,0.0,0.0,0.0,0.0,0.0,32.766,32.766,0.277,32.766,2.829,2018.794189453125,809.9378662109375,32.21363067626953,,False,
1783703874.2690256,2026-07-10T10:17:54,12588,20260710_101749,,,,,,ground_idle,,,,,,,,,False,0.022848399356007576,-0.0009340413962490857,1.0019373893737793,-0.08640216290950775,-0.39206650853157043,-0.08867339044809341,-1.0,4.0,48.0,29.0,0.029,0.0023614743258804083,-0.00038799011963419616,0.029010431841015816,0.0069853984750807285,0.0015219001797959208,0.004698294214904308,0.11706633865833282,1.1264281272888184,0.009473069570958614,0.029117444530129433,0.005050643812865019,4.6972791096777655e-06,0.00022077375615481287,3.710850477218628,10.0,0.0,0.0,0.0,0.0,0.0,32.766,32.766,0.277,32.766,2.829,2018.794189453125,809.9378662109375,32.21363067626953,,False,
1783703874.2792408,2026-07-10T10:17:54,12597,20260710_101749,,,,,,ground_idle,,,,,,,,,False,0.02166316658258438,0.0023662373423576355,1.0019569396972656,0.08510319888591766,0.08649321645498276,-0.23531484603881836,3.0,1.0,55.0,29.0,0.029,0.0009604619699530303,-0.0009306090069003403,0.02906876988708973,0.00023665433400310576,-0.0017163712764158845,0.004830337129533291,0.1385512799024582,1.1817296743392944,0.007483644876629114,0.029117444530129433,0.005050643812865019,4.6972791096777655e-06,0.00022077375615481287,3.7161290645599365,10.0,0.0,0.0,0.0,0.0,0.0,0.273,32.766,0.278,32.766,2.836,2018.794189453125,809.9378662109375,32.21363067626953,,False,
1783703874.28941,2026-07-10T10:17:54,12605,20260710_101749,,,,,,ground_idle,,,,,,,,,False,0.02344401925802231,0.002601081971079111,1.000409483909607,-0.08960524946451187,0.2227274626493454,-0.04664836451411247,-1.0,-4.0,67.0,29.0,0.029,0.0009604619699530303,-0.0009306090069003403,0.02906876988708973,0.00023665433400310576,-0.0017163712764158845,0.004830337129533291,0.1385512799024582,1.1817296743392944,0.007483644876629114,0.029117444530129433,0.005050643812865019,4.6972791096777655e-06,0.00022077375615481287,3.7161290645599365,10.0,0.0,0.0,0.0,0.0,0.0,0.273,32.766,0.278,32.766,2.836,2018.794189453125,809.9378662109375,32.21363067626953,,False,
1783703874.2995768,2026-07-10T10:17:54,12617,20260710_101749,,,,,,ground_idle,,,,,,,,,False,0.021961016580462456,0.0018537599826231599,1.0015416145324707,0.1355530321598053,0.12407808005809784,0.21431757509708405,-1.0,0.0,66.0,29.0,0.029,0.0020031642634421587,-0.00039740040665492415,0.029173659160733223,0.005415699910372496,0.0009717719512991607,0.0051608276553452015,0.11783943325281143,1.140835165977478,0.007214931305497885,0.029117444530129433,0.005050643812865019,4.6972791096777655e-06,0.00022077375615481287,3.7161290645599365,10.0,0.0,0.0,0.0,0.0,0.0,0.273,32.766,0.278,32.766,2.836,2018.794189453125,809.9378662109375,32.21363067626953,,False,
1783703874.3097723,2026-07-10T10:17:54,12625,20260710_101749,,,,,,ground_idle,,,,,,,,,False,0.022235320881009102,0.001717922743409872,0.9996998310089111,0.041303813457489014,0.2530481815338135,0.32994210720062256,0.0,0.0,63.0,29.0,0.029,0.0020031642634421587,-0.00039740040665492415,0.029173659160733223,0.005415699910372496,0.0009717719512991607,0.0051608276553452015,0.11783943325281143,1.140835165977478,0.007214931305497885,0.029117444530129433,0.005050643812865019,4.6972791096777655e-06,0.00022077375615481287,3.7161290645599365,10.0,0.0,0.0,0.0,0.0,0.0,0.273,32.766,0.278,32.766,2.836,2018.794189453125,809.9378662109375,32.21363067626953,,False,
1783703874.3199413,2026-07-10T10:17:54,12638,20260710_101749,,,,,,ground_idle,,,,,,,,,False,0.022778796032071114,0.0027127377688884735,0.9991847276687622,0.1997566819190979,0.031479667872190475,0.009347621351480484,0.0,0.0,58.0,30.0,0.03,0.002110875677317381,-0.00037891039391979575,0.029564326629042625,0.005815959069877863,0.0009420927381142974,0.006830391939729452,0.1176045686006546,1.1342524290084839,0.007483711466193199,0.02963222935795784,0.006626700051128864,2.7533528736967128e-06,0.00017078516248147935,3.7161290645599365,10.0,0.0,0.0,0.0,0.0,0.0,0.273,32.766,0.278,32.766,2.836,2018.794189453125,809.9378662109375,32.21363067626953,,False,
1783703874.3301282,2026-07-10T10:17:54,12645,20260710_101749,,,,,,ground_idle,,,,,,,,,False,0.020749198272824287,0.0032175907399505377,0.9998089075088501,-0.18828581273555756,-0.24206750094890594,0.03129332885146141,-1.0,0.0,55.0,30.0,0.03,0.002110875677317381,-0.00037891039391979575,0.029564326629042625,0.005815959069877863,0.0009420927381142974,0.006830391939729452,0.1176045686006546,1.1342524290084839,0.007483711466193199,0.02963222935795784,0.006626700051128864,2.7533528736967128e-06,0.00017078516248147935,3.7161290645599365,10.0,0.0,0.0,0.0,0.0,0.0,0.273,32.766,0.278,32.766,2.836,2018.7230224609375,809.9443359375,32.22163009643555,,False,
1783703874.340405,2026-07-10T10:17:54,12661,20260710_101749,,,,,,ground_idle,,,,,,,,,False,0.021819479763507843,0.0025156671181321144,1.0029644966125488,-0.058415088802576065,-0.05324740335345268,-0.001459425431676209,3.0,2.0,62.0,30.0,0.03,0.0015110224485397339,-0.000944918196182698,0.02970501221716404,0.002737515140324831,-0.0018047855701297522,0.006791918072849512,0.1385491043329239,1.157620906829834,0.008874653838574886,0.02963222935795784,0.006626700051128864,2.7533528736967128e-06,0.00017078516248147935,3.7161290645599365,10.0,0.0,0.0,0.0,0.0,0.0,0.273,32.766,0.278,32.766,2.836,2018.7230224609375,809.9443359375,32.22163009643555,,False,
1783703874.3507347,2026-07-10T10:17:54,12671,20260710_101749,,,,,,ground_idle,,,,,,,,,False,0.02205961011350155,0.001033626962453127,1.000112771987915,0.01559552550315857,0.09968320280313492,0.0845271646976471,1.0,0.0,63.0,30.0,0.03,0.0015110224485397339,-0.000944918196182698,0.02970501221716404,0.002737515140324831,-0.0018047855701297522,0.006791918072849512,0.1385491043329239,1.157620906829834,0.008874653838574886,0.02963222935795784,0.006626700051128864,2.7533528736967128e-06,0.00017078516248147935,3.7161290645599365,10.0,0.0,0.0,0.0,0.0,0.0,0.273,32.766,0.278,32.766,2.836,2018.7230224609375,809.9443359375,32.22163009643555,,False,
1783703874.360956,2026-07-10T10:17:54,12681,20260710_101749,,,,,,ground_idle,,,,,,,,,False,0.02264690399169922,0.0030276384204626083,0.999588668346405,0.17293408513069153,0.22488349676132202,-0.21975748240947723,-5.0,-2.0,58.0,30.0,0.03,0.0020236046984791756,0.000131000138935633,0.02985244058072567,0.005265532061457634,0.003509759670123458,0.0073988791555166245,0.09519553929567337,1.1358801126480103,0.010543476790189743,0.02963222935795784,0.006626700051128864,2.7533528736967128e-06,0.00017078516248147935,3.7161290645599365,10.0,0.0,0.0,0.0,0.0,0.0,0.273,32.766,0.278,32.766,2.836,2018.7230224609375,809.9443359375,32.22163009643555,,False,
1783703874.3713431,2026-07-10T10:17:54,12691,20260710_101749,,,,,,ground_idle,,,,,,,,,False,0.02119455114006996,0.0030998431611806154,0.9990310668945312,0.13992339372634888,0.11592254042625427,0.07591220736503601,1.0,0.0,44.0,30.0,0.03,0.0020236046984791756,0.000131000138935633,0.02985244058072567,0.005265532061457634,0.003509759670123458,0.0073988791555166245,0.09519553929567337,1.1358801126480103,0.010543476790189743,0.030003812164068222,0.007360745687037706,4.697325039160205e-06,0.00022077333414927125,3.7161290645599365,10.0,0.0,0.0,0.0,0.0,0.0,0.274,32.766,0.274,32.766,2.842,2018.7230224609375,809.9443359375,32.22163009643555,,False,
1783703874.381524,2026-07-10T10:17:54,12701,20260710_101749,,,,,,ground_idle,,,,,,,,,False,0.02138557657599449,0.00268188095651567,0.9982042908668518,0.21433484554290771,0.29317426681518555,0.28782549500465393,-1.0,0.0,49.0,28.0,0.028,0.002008369192481041,0.0001056201581377536,0.029144423082470894,0.005130796693265438,0.0032210976351052523,0.00297438632696867,0.10077755898237228,1.135379433631897,0.010035250335931778,0.030003812164068222,0.007360745687037706,4.697325039160205e-06,0.00022077333414927125,3.7161290645599365,10.0,0.0,0.0,0.0,0.0,0.0,0.274,32.766,0.274,32.766,2.842,2018.7230224609375,809.9443359375,32.22163009643555,,False,
1783703874.3916984,2026-07-10T10:17:54,12711,20260710_101749,,,,,,ground_idle,,,,,,,,,False,0.02184593677520752,0.0025572979357093573,0.9985545873641968,-0.12096136063337326,0.05224790796637535,-0.006746223662048578,4.0,2.0,69.0,28.0,0.028,0.002008369192481041,0.0001056201581377536,0.029144423082470894,0.005130796693265438,0.0032210976351052523,0.00297438632696867,0.10077755898237228,1.135379433631897,0.010035250335931778,0.030003812164068222,0.007360745687037706,4.697325039160205e-06,0.00022077333414927125,3.7161290645599365,10.0,0.0,0.0,0.0,0.0,0.0,0.274,32.766,0.274,32.766,2.842,2018.7230224609375,809.9443359375,32.22163009643555,,False,
1783703874.4018745,2026-07-10T10:17:54,12721,20260710_101749,,,,,,ground_idle,,,,,,,,,False,0.022684844210743904,0.004601956810802221,0.9999648332595825,0.21511289477348328,0.049459196627140045,-0.04438398778438568,1.0,0.0,62.0,28.0,0.028,0.0014692919794470072,-0.0011861880775541067,0.029207799583673477,0.002400472294539213,-0.002947192406281829,0.0027595385909080505,0.15035505592823029,1.1557244062423706,0.011686738580465317,0.030003812164068222,0.007360745687037706,4.697325039160205e-06,0.00022077333414927125,3.7161290645599365,10.0,0.0,0.0,0.0,0.0,0.0,0.274,32.766,0.274,32.766,2.842,2018.7230224609375,809.9443359375,32.22163009643555,,False,
1783703874.4120562,2026-07-10T10:17:54,12731,20260710_101749,,,,,,ground_idle,,,,,,,,,False,0.020748548209667206,0.002472516382113099,1.0006346702575684,-0.02391476184129715,-0.28758853673934937,0.08058005571365356,0.0,-1.0,63.0,28.0,0.028,0.0014692919794470072,-0.0011861880775541067,0.029207799583673477,0.002400472294539213,-0.002947192406281829,0.0027595385909080505,0.15035505592823029,1.1557244062423706,0.011686738580465317,0.030003812164068222,0.007360745687037706,4.697325039160205e-06,0.00022077333414927125,3.7161290645599365,10.0,0.0,0.0,0.0,0.0,0.0,0.274,32.766,0.274,32.766,2.842,2018.7230224609375,809.9443359375,32.22163009643555,,False,
1783703874.4222646,2026-07-10T10:17:54,12741,20260710_101749,,,,,,ground_idle,,,,,,,,,False,0.020748548209667206,0.002472516382113099,1.0006346702575684,-0.02391476184129715,-0.28758853673934937,0.08058005571365356,0.0,-1.0,58.0,29.0,0.029,0.0019484242657199502,-0.0011752357240766287,0.029157729819417,0.0048161339946091175,-0.0024188959505409002,0.0020958890672773123,0.14856572449207306,1.1406099796295166,0.011735843494534492,0.029179098084568977,0.002085704356431961,2.753342641881318e-06,0.00017077864322345704,3.710850477218628,10.0,0.0,0.0,0.0,0.0,0.0,0.274,32.766,0.274,32.766,2.842,2018.7122802734375,809.9451293945312,32.225067138671875,,False,
1783703874.4324298,2026-07-10T10:17:54,12751,20260710_101749,,,,,,ground_idle,,,,,,,,,False,0.022763224318623543,0.0013609055895358324,1.00034761428833,0.1492481231689453,-0.3266105353832245,0.3145295977592468,-8.0,2.0,46.0,29.0,0.029,0.0019484242657199502,-0.0011752357240766287,0.029157729819417,0.0048161339946091175,-0.0024188959505409002,0.0020958890672773123,0.14856572449207306,1.1406099796295166,0.011735843494534492,0.029179098084568977,0.002085704356431961,2.753342641881318e-06,0.00017077864322345704,3.710850477218628,10.0,0.0,0.0,0.0,0.0,0.0,0.274,32.766,0.274,32.766,2.842,2018.7122802734375,809.9451293945312,32.225067138671875,,False,
1783703874.4425962,2026-07-10T10:17:54,12761,20260710_101749,,,,,,ground_idle,,,,,,,,,False,0.02209373004734516,0.004374453332275152,1.0008541345596313,-0.09347566962242126,0.010198110714554787,0.25163283944129944,8.0,0.0,62.0,29.0,0.029,0.0014390154974535108,-0.0011649109655991197,0.029231088235974312,0.002229885431006551,-0.0027122029569000006,0.0024159238673746586,0.14982755482196808,1.1629172563552856,0.013265750370919704,0.029179098084568977,0.002085704356431961,2.753342641881318e-06,0.00017077864322345704,3.710850477218628,10.0,0.0,0.0,0.0,0.0,0.0,0.274,32.766,0.274,32.766,2.842,2018.7122802734375,809.9451293945312,32.225067138671875,,False,
1783703874.452756,2026-07-10T10:17:54,12771,20260710_101749,,,,,,ground_idle,,,,,,,,,False,0.021251492202281952,0.0033081748988479376,0.9990053772926331,0.19116605818271637,-0.06457104533910751,-0.1081889271736145,0.0,1.0,62.0,29.0,0.029,0.0014390154974535108,-0.0011649109655991197,0.029231088235974312,0.002229885431006551,-0.0027122029569000006,0.0024159238673746586,0.14982755482196808,1.1629172563552856,0.013265750370919704,0.029179098084568977,0.002085704356431961,2.753342641881318e-06,0.00017077864322345704,3.710850477218628,10.0,0.0,0.0,0.0,0.0,0.0,0.274,32.766,0.274,32.766,2.842,2018.7122802734375,809.9451293945312,32.225067138671875,,False,
1783703874.4629145,2026-07-10T10:17:54,12781,20260710_101749,,,,,,ground_idle,,,,,,,,,False,0.020918039605021477,0.00010690317139960825,0.9985554814338684,-0.24133692681789398,0.061624832451343536,-0.025643138214945793,-2.0,0.0,58.0,29.0,0.029,0.0011959740659222007,-0.0006916510174050927,0.029283247888088226,0.0012613643193617463,-0.0001302058808505535,0.0025690824259072542,0.12838084995746613,1.1711721420288086,0.012988058850169182,0.029179098084568977,0.002085704356431961,2.753342641881318e-06,0.00017077864322345704,3.710850477218628,10.0,0.0,0.0,0.0,0.0,0.0,0.274,32.766,0.274,32.766,2.842,2018.7122802734375,809.9451293945312,32.225067138671875,,False,
1783703874.4730768,2026-07-10T10:17:54,12791,20260710_101749,,,,,,ground_idle,,,,,,,,,False,0.022131912410259247,0.0023426234256476164,0.9991923570632935,0.11338068544864655,-0.3447319567203522,0.052912186831235886,-2.0,-3.0,44.0,29.0,0.029,0.0011959740659222007,-0.0006916510174050927,0.029283247888088226,0.0012613643193617463,-0.0001302058808505535,0.0025690824259072542,0.12838084995746613,1.1711721420288086,0.012988058850169182,0.029335100203752518,0.00233721686527133,4.6972913878562395e-06,0.0002207740762969479,3.7161290645599365,10.0,0.0,0.0,0.0,0.0,0.0,32.766,32.766,0.275,32.766,2.838,2018.7122802734375,809.9451293945312,32.225067138671875,,False,
1783703874.48333,2026-07-10T10:17:54,12801,20260710_101749,,,,,,ground_idle,,,,,,,,,False,0.021826766431331635,0.0012620482593774796,1.001732349395752,-0.28178462386131287,-0.09960754215717316,0.2694641053676605,0.0,0.0,49.0,28.0,0.028,0.0019627457950264215,-0.00019068180699832737,0.028762709349393845,0.004972602240741253,0.0022175475023686886,-0.000555303180590272,0.10811429470777512,1.1424514055252075,0.013751131482422352,0.029335100203752518,0.00233721686527133,4.6972913878562395e-06,0.0002207740762969479,3.7161290645599365,10.0,0.0,0.0,0.0,0.0,0.0,32.766,32.766,0.275,32.766,2.838,2018.7122802734375,809.9451293945312,32.225067138671875,,False,
1783703874.493494,2026-07-10T10:17:54,12811,20260710_101749,,,,,,ground_idle,,,,,,,,,False,0.021553058177232742,0.0006204118253663182,1.0015292167663574,-0.09209144115447998,-0.23276560008525848,0.014677061699330807,0.0,0.0,68.0,28.0,0.028,0.0019627457950264215,-0.00019068180699832737,0.028762709349393845,0.004972602240741253,0.0022175475023686886,-0.000555303180590272,0.10811429470777512,1.1424514055252075,0.013751131482422352,0.029335100203752518,0.00233721686527133,4.6972913878562395e-06,0.0002207740762969479,3.7161290645599365,10.0,0.0,0.0,0.0,0.0,0.0,32.766,32.766,0.275,32.766,2.838,2018.7122802734375,809.9451293945312,32.225067138671875,,False,
1783703874.5036602,2026-07-10T10:17:54,12821,20260710_101749,,,,,,ground_idle,,,,,,,,,False,0.022727476432919502,0.0005098321125842631,1.0001397132873535,0.16618220508098602,0.10591543465852737,-0.12097784876823425,1.0,0.0,69.0,28.0,0.028,0.0019926081877201796,-0.0004265971074346453,0.028753018006682396,0.005055307410657406,0.0007774630794301629,-0.00042707027751021087,0.1152862086892128,1.1458146572113037,0.012978080660104752,0.029335100203752518,0.00233721686527133,4.6972913878562395e-06,0.0002207740762969479,3.7161290645599365,10.0,0.0,0.0,0.0,0.0,0.0,32.766,32.766,0.275,32.766,2.838,2018.7122802734375,809.9451293945312,32.225067138671875,,False,
1783703874.513825,2026-07-10T10:17:54,12831,20260710_101749,,,,,,arming,,,,,,,,,False,0.02271956577897072,0.001680914661847055,1.0005651712417603,-0.19787925481796265,0.24239800870418549,0.007644142955541611,2.0,3.0,68.0,28.0,0.028,0.0019926081877201796,-0.0004265971074346453,0.028753018006682396,0.005055307410657406,0.0007774630794301629,-0.00042707027751021087,0.1152862086892128,1.1458146572113037,0.012978080660104752,0.029335100203752518,0.00233721686527133,4.6972913878562395e-06,0.0002207740762969479,3.7161290645599365,10.0,0.0,0.0,0.0,0.0,0.0,32.766,32.766,0.275,32.766,2.838,2018.7122802734375,809.9451293945312,32.225067138671875,,False,
1783703874.523996,2026-07-10T10:17:54,12841,20260710_101749,,,,,,arming,,,,,,,,,False,0.02271956577897072,0.001680914661847055,1.0005651712417603,-0.19787925481796265,0.24239800870418549,0.007644142955541611,-1.0,-4.0,55.0,27.0,0.027,0.0022374300751835108,-0.0006751347100362182,0.028061123564839363,0.006331201177090406,-0.0006914859404787421,-0.0037589450366795063,0.12341976165771484,1.134729266166687,0.013122005388140678,0.028023773804306984,-0.003839814569801092,2.7533349111763528e-06,0.00017078140808735043,3.710850477218628,10.0,0.0,0.0,0.0,0.0,0.0,32.766,32.766,0.275,32.766,2.838,2018.7230224609375,809.9442749023438,32.22995376586914,,False,
1783703874.5343535,2026-07-10T10:17:54,12851,20260710_101749,,,,,,arming,,,,,,,,,False,0.023392584174871445,0.0015934285474941134,1.0001121759414673,0.07461917400360107,0.18434250354766846,0.1210242211818695,-2.0,1.0,49.0,27.0,0.027,0.0022374300751835108,-0.0006751347100362182,0.028061123564839363,0.006331201177090406,-0.0006914859404787421,-0.0037589450366795063,0.12341976165771484,1.134729266166687,0.013122005388140678,0.028023773804306984,-0.003839814569801092,2.7533349111763528e-06,0.00017078140808735043,3.710850477218628,10.0,0.0,0.0,0.0,0.0,0.0,32.766,32.766,0.275,32.766,2.838,2018.7230224609375,809.9442749023438,32.22995376586914,,False,
1783703874.5445287,2026-07-10T10:17:54,12865,20260710_101749,,,,,,arming,,,,,,,,,False,0.02365771308541298,0.0020416919142007828,1.001015305519104,-0.003204259555786848,0.15853992104530334,0.07787754386663437,-1.0,0.0,65.0,27.0,0.027,0.0017312365816906095,-0.0009078294970095158,0.027992550283670425,0.00389257725328207,-0.0017991126514971256,-0.003642757423222065,0.13370491564273834,1.1556892395019531,0.012744988314807415,0.028023773804306984,-0.003839814569801092,2.7533349111763528e-06,0.00017078140808735043,3.710850477218628,10.0,0.0,0.0,0.0,0.0,0.0,32.766,32.766,0.275,32.766,2.838,2018.7230224609375,809.9442749023438,32.22995376586914,,False,
1783703874.5547059,2026-07-10T10:17:54,12871,20260710_101749,,,,,,arming,,,,,,,,,False,0.024106936529278755,0.00018005537276621908,1.0007165670394897,-0.26748529076576233,0.07558257132768631,0.14105543494224548,-1.0,0.0,65.0,27.0,0.027,0.0017312365816906095,-0.0009078294970095158,0.027992550283670425,0.00389257725328207,-0.0017991126514971256,-0.003642757423222065,0.13370491564273834,1.1556892395019531,0.012744988314807415,0.028023773804306984,-0.003839814569801092,2.7533349111763528e-06,0.00017078140808735043,3.710850477218628,10.0,0.0,0.0,0.0,0.0,0.0,32.766,32.766,0.275,32.766,2.838,2018.7230224609375,809.9442749023438,32.22995376586914,,False,
1783703874.5648952,2026-07-10T10:17:54,12885,20260710_101749,,,,,,arming,,,,,,,,,False,0.023551803082227707,0.001184628694318235,1.0004562139511108,0.04067303612828255,-0.2268982231616974,0.13752081990242004,1.0,4.0,48.0,27.0,0.027,0.0019560125656425953,-0.0006624229717999697,0.02792150154709816,0.0052744182758033276,-0.0005040885880589485,-0.003458041464909911,0.12157973647117615,1.1472351551055908,0.013222936540842056,0.028023773804306984,-0.003839814569801092,2.7533349111763528e-06,0.00017078140808735043,3.710850477218628,10.0,0.0,0.0,0.0,0.0,0.0,32.766,32.766,0.275,32.766,2.838,2018.7230224609375,809.9442749023438,32.22995376586914,,False,
1783703874.5750632,2026-07-10T10:17:54,12891,20260710_101749,,,,,,arming,,,,,,,,,False,0.021767767146229744,0.0010658943792805076,0.999037504196167,-0.15604828298091888,-0.09840847551822662,0.04998260363936424,1.0,4.0,48.0,27.0,0.027,0.0019560125656425953,-0.0006624229717999697,0.02792150154709816,0.0052744182758033276,-0.0005040885880589485,-0.003458041464909911,0.12157973647117615,1.1472351551055908,0.013222936540842056,0.027860432863235474,-0.0032857232727110386,4.697311851487029e-06,0.0002207718789577484,3.7161290645599365,10.0,0.0,7000.0,7000.0,7000.0,7000.0,0.277,32.766,0.281,32.766,2.86,2018.7230224609375,809.9442749023438,32.22995376586914,,False,
1783703874.585245,2026-07-10T10:17:54,12905,20260710_101749,,,,,,arming,,,,,,,,,False,0.021148670464754105,0.004026922397315502,0.9978364109992981,-0.1311025619506836,0.0769423171877861,0.05397483706474304,-2.0,-4.0,68.0,27.0,0.027,0.001014040783047676,-0.0011242268374189734,0.027491005137562752,0.0008639664738439023,-0.0029905044939368963,-0.005207166541367769,0.13887423276901245,1.1861449480056763,0.014169293455779552,0.027860432863235474,-0.0032857232727110386,4.697311851487029e-06,0.0002207718789577484,3.7161290645599365,10.0,0.0,7000.0,7000.0,7000.0,7000.0,0.277,32.766,0.281,32.766,2.86,2018.7230224609375,809.9442749023438,32.22995376586914,,False,
1783703874.5954185,2026-07-10T10:17:54,12916,20260710_101749,,,,,,arming,,,,,,,,,False,0.020858414471149445,0.001547049731016159,0.9992737174034119,-0.03190914914011955,-0.08506815135478973,-0.06128423288464546,1.0,2.0,64.0,27.0,0.027,0.001469779177568853,-0.0008879504748620093,0.027392404153943062,0.003089199075475335,-0.001601850613951683,-0.005411381367594004,0.13887423276901245,1.1861449480056763,0.014169293455779552,0.027860432863235474,-0.0032857232727110386,4.697311851487029e-06,0.0002207718789577484,3.7161290645599365,10.0,0.0,7000.0,7000.0,7000.0,7000.0,0.277,32.766,0.281,32.766,2.86,2018.7230224609375,809.9442749023438,32.22995376586914,,False,
1783703874.6056283,2026-07-10T10:17:54,12925,20260710_101749,,,,,,arming,,,,,,,,,False,0.021964574232697487,0.003214252647012472,1.0007236003875732,-0.12471020221710205,0.1764029711484909,0.1557571142911911,-2.0,2.0,66.0,27.0,0.027,0.001469779177568853,-0.0008879504748620093,0.027392404153943062,0.003089199075475335,-0.001601850613951683,-0.005411381367594004,0.12835294008255005,1.1695135831832886,0.0138236740604043,0.027860432863235474,-0.0032857232727110386,4.697311851487029e-06,0.0002207718789577484,3.7161290645599365,10.0,0.0,7000.0,7000.0,7000.0,7000.0,0.277,32.766,0.281,32.766,2.86,2018.7230224609375,809.9442749023438,32.22995376586914,,False,
1783703874.6158226,2026-07-10T10:17:54,12936,20260710_101749,,,,,,arming,,,,,,,,,False,0.02058601751923561,0.003251078072935343,1.0006500482559204,0.08944009244441986,0.1130470335483551,-0.16374853253364563,2.0,0.0,55.0,27.0,0.027,0.0010161561658605933,-0.0008833273313939571,0.027173273265361786,0.0007057213224470615,-0.0014815126778557897,-0.00597127340734005,0.12835294008255005,1.1695135831832886,0.0138236740604043,0.027860432863235474,-0.0032857232727110386,4.697311851487029e-06,0.0002207718789577484,3.7161290645599365,10.0,0.0,7000.0,7000.0,7000.0,7000.0,0.277,32.766,0.281,32.766,2.86,2018.7230224609375,809.9442749023438,32.22995376586914,,False,
1783703874.626002,2026-07-10T10:17:54,12945,20260710_101749,,,,,,arming,,,,,,,,,False,0.02201719954609871,0.002622810425236821,0.9990900754928589,-0.017080368474125862,0.31305626034736633,0.17340964078903198,-3.0,-1.0,49.0,27.0,0.027,0.0010161561658605933,-0.0008833273313939571,0.027173273265361786,0.0007057213224470615,-0.0014815126778557897,-0.00597127340734005,0.12764573097229004,1.1864160299301147,0.013413611799478531,0.027113983407616615,-0.00589672802016139,2.7533271804713877e-06,0.00017077979282476008,3.710850477218628,10.0,0.0,7000.0,7000.0,7000.0,7000.0,0.277,32.766,0.281,32.766,2.86,2018.7230224609375,809.9443359375,32.234527587890625,,False,
1783703874.6362302,2026-07-10T10:17:54,12956,20260710_101749,,,,,,arming,,,,,,,,,False,0.02311575412750244,0.0009585633524693549,1.0001211166381836,-0.11412787437438965,-0.14648567140102386,0.13273246586322784,1.0,-4.0,63.0,27.0,0.027,0.002123047597706318,-0.0004307992639951408,0.027058301493525505,0.006418383214622736,0.0009747847216203809,-0.005870096385478973,0.12764573097229004,1.1864160299301147,0.013413611799478531,0.027113983407616615,-0.00589672802016139,2.7533271804713877e-06,0.00017077979282476008,3.710850477218628,10.0,0.0,7000.0,7000.0,7000.0,7000.0,0.277,32.766,0.281,32.766,2.86,2018.7230224609375,809.9443359375,32.234527587890625,,False,
1783703874.6464,2026-07-10T10:17:54,12965,20260710_101749,,,,,,arming,,,,,,,,,False,0.023342685773968697,0.003096087137237191,0.9977254271507263,-0.03326854854822159,-0.12034215033054352,0.27706411480903625,3.0,3.0,62.0,27.0,0.027,0.002123047597706318,-0.0004307992639951408,0.027058301493525505,0.006418383214622736,0.0009747847216203809,-0.005870096385478973,0.10839008539915085,1.139742136001587,0.014848733320832253,0.027113983407616615,-0.00589672802016139,2.7533271804713877e-06,0.00017077979282476008,3.710850477218628,10.0,0.0,7000.0,7000.0,7000.0,7000.0,0.277,32.766,0.281,32.766,2.86,2018.7230224609375,809.9443359375,32.234527587890625,,False,
1783703874.6565602,2026-07-10T10:17:54,12976,20260710_101749,,,,,,arming,,,,,,,,,False,0.022841446101665497,0.004113001748919487,0.9979121685028076,0.23355044424533844,0.24871757626533508,0.21905042231082916,0.0,-1.0,73.0,27.0,0.027,0.0016837784787639976,-0.001084258547052741,0.026947757229208946,0.004224975127726793,-0.0023737861774861813,-0.0059589603915810585,0.10839008539915085,1.139742136001587,0.014848733320832253,0.027113983407616615,-0.00589672802016139,2.7533271804713877e-06,0.00017077979282476008,3.710850477218628,10.0,0.0,7000.0,7000.0,7000.0,7000.0,0.277,32.766,0.281,32.766,2.86,2018.7230224609375,809.9443359375,32.234527587890625,,False,
1783703874.6667218,2026-07-10T10:17:54,12985,20260710_101749,,,,,,arming,,,,,,,,,False,0.021508336067199707,-0.00016035382577683777,0.998808741569519,-0.07410091161727905,0.10441616922616959,-0.31626370549201965,-4.0,1.0,43.0,27.0,0.027,0.0016837784787639976,-0.001084258547052741,0.026947757229208946,0.004224975127726793,-0.0023737861774861813,-0.0059589603915810585,0.13478946685791016,1.1579896211624146,0.018786607310175896,0.027113983407616615,-0.00589672802016139,2.7533271804713877e-06,0.00017077979282476008,3.710850477218628,10.0,0.0,7000.0,7000.0,7000.0,7000.0,0.277,32.766,0.281,32.766,2.86,2018.7230224609375,809.9443359375,32.234527587890625,,False,
1783703874.677243,2026-07-10T10:17:54,12996,20260710_101749,,,,,,arming,,,,,,,,,False,0.024434048682451248,0.0008036185754463077,0.9990292191505432,0.2041122019290924,0.3041023313999176,-0.39110496640205383,0.0,-2.0,48.0,31.0,0.031,0.0018685461254790425,-0.00023232836974784732,0.028618099167943,0.005186902359127998,0.002120032673701644,0.0031852908432483673,0.13478946685791016,1.1579896211624146,0.018786607310175896,0.026831267401576042,-0.006238323636353016,4.697296390077099e-06,0.00022077375615481287,3.7055718898773193,10.0,0.0,7000.0,7000.0,7000.0,7000.0,0.272,32.766,0.281,32.766,2.852,2018.7230224609375,809.9443359375,32.234527587890625,,False,
1783703874.6875322,2026-07-10T10:17:54,13005,20260710_101749,,,,,,arming,,,,,,,,,False,0.021237513050436974,0.0020438076462596655,1.0021331310272217,-0.07442180067300797,-0.11380472034215927,1.1334079504013062,3.0,3.0,70.0,31.0,0.031,0.0018685461254790425,-0.00023232836974784732,0.028618099167943,0.005186902359127998,0.002120032673701644,0.0031852908432483673,0.10009975731372833,1.1470916271209717,0.015718284994363785,0.026831267401576042,-0.006238323636353016,4.697296390077099e-06,0.00022077375615481287,3.7055718898773193,10.0,0.0,7000.0,7000.0,7000.0,7000.0,0.272,32.766,0.281,32.766,2.852,2018.7230224609375,809.9443359375,32.234527587890625,,False,
1783703874.6978278,2026-07-10T10:17:54,13017,20260710_101749,,,,,,arming,,,,,,,,,False,0.023622281849384308,0.0007830735994502902,0.9992563724517822,-0.16658568382263184,-0.22412551939487457,-0.16399253904819489,1.0,0.0,67.0,31.0,0.031,0.0012199395569041371,-0.0010752506786957383,0.028687750920653343,0.001896121189929545,-0.002526475815102458,0.0032891049049794674,0.1333395391702652,1.17709219455719,0.02074461244046688,0.026831267401576042,-0.006238323636353016,4.697296390077099e-06,0.00022077375615481287,3.7055718898773193,10.0,0.0,7000.0,7000.0,7000.0,7000.0,0.272,32.766,0.281,32.766,2.852,2018.7230224609375,809.9443359375,32.234527587890625,,False,
1783703874.7080657,2026-07-10T10:17:54,13025,20260710_101749,,,,,,arming,,,,,,,,,False,0.02139986678957939,0.00034677653457038105,0.9937949776649475,-0.030445609241724014,-0.7295117974281311,-1.7836060523986816,-4.0,-3.0,68.0,31.0,0.031,0.0012199395569041371,-0.0010752506786957383,0.028687750920653343,0.001896121189929545,-0.002526475815102458,0.0032891049049794674,0.1333395391702652,1.17709219455719,0.02074461244046688,0.026831267401576042,-0.006238323636353016,4.697296390077099e-06,0.00022077375615481287,3.7055718898773193,10.0,0.0,7000.0,7000.0,7000.0,7000.0,0.272,32.766,0.281,32.766,2.852,2018.7230224609375,809.9443359375,32.234527587890625,,False,
1783703874.7183206,2026-07-10T10:17:54,13038,20260710_101749,,,,,,arming,,,,,,,,,False,0.025145838037133217,0.00126947823446244,0.9978554248809814,0.1521381437778473,0.04025659337639809,-1.4000799655914307,0.0,4.0,54.0,30.0,0.03,0.0009943526238203049,-0.00023352332937065512,0.02925174869596958,0.0006956318975426257,0.0018253534799441695,0.0054726204834878445,0.09812583029270172,1.190559983253479,0.012141382321715355,0.029306231066584587,0.005398520268499851,2.753348780970555e-06,0.00017077838128898293,3.7055718898773193,10.0,0.0,7000.0,7000.0,7000.0,7000.0,0.272,32.766,0.281,32.766,2.852,2018.7230224609375,809.9443359375,32.234527587890625,,False,
1783703874.7285202,2026-07-10T10:17:54,13045,20260710_101749,,,,,,arming,,,,,,,,,False,0.02454450912773609,0.0014445888809859753,1.0030981302261353,0.1722693294286728,0.01679036393761635,0.9325233697891235,3.0,-1.0,54.0,30.0,0.03,0.0009943526238203049,-0.00023352332937065512,0.02925174869596958,0.0006956318975426257,0.0018253534799441695,0.0054726204834878445,0.09812583029270172,1.190559983253479,0.012141382321715355,0.029306231066584587,0.005398520268499851,2.753348780970555e-06,0.00017077838128898293,3.695014715194702,10.0,0.0,7000.0,7000.0,7000.0,7000.0,0.272,32.766,0.281,32.766,2.852,2018.821533203125,809.9354248046875,32.23985290527344,,False,
1783703874.7386801,2026-07-10T10:17:54,13057,20260710_101749,,,,,,arming,,,,,,,,,False,0.022259686142206192,-0.0010399500606581569,1.0046154260635376,0.16752448678016663,0.5897272229194641,1.344712734222412,0.0,0.0,67.0,30.0,0.03,0.0012224148958921432,-0.0008727516978979111,0.029363665729761124,0.00235359906218946,-0.0018331867177039385,0.005625082179903984,0.12746751308441162,1.1719907522201538,0.016245162114501,0.029306231066584587,0.005398520268499851,2.753348780970555e-06,0.00017077838128898293,3.695014715194702,10.0,0.0,7000.0,7000.0,7000.0,7000.0,0.272,32.766,0.281,32.766,2.852,2018.821533203125,809.9354248046875,32.23985290527344,,False,
1783703874.7488415,2026-07-10T10:17:54,13065,20260710_101749,,,,,,arming,,,,,,,,,False,0.022051608189940453,0.0005257368902675807,0.9980019330978394,-0.02672458067536354,-0.3957022726535797,0.6466266512870789,-2.0,-3.0,63.0,30.0,0.03,0.0012224148958921432,-0.0008727516978979111,0.029363665729761124,0.00235359906218946,-0.0018331867177039385,0.005625082179903984,0.12746751308441162,1.1719907522201538,0.016245162114501,0.029306231066584587,0.005398520268499851,2.753348780970555e-06,0.00017077838128898293,3.695014715194702,10.0,0.0,7000.0,7000.0,7000.0,7000.0,0.272,32.766,0.281,32.766,2.852,2018.821533203125,809.9354248046875,32.23985290527344,,False,
1783703874.759009,2026-07-10T10:17:54,13077,20260710_101749,,,,,,arming,,,,,,,,,False,0.021999098360538483,0.0003861333825625479,0.9954078793525696,-0.12300249189138412,-0.1357121616601944,-1.3026058673858643,-1.0,0.0,75.0,30.0,0.03,0.0018541477620601654,-0.00021780512179248035,0.02948027290403843,0.005727325100451708,0.0014015643391758204,0.005713094491511583,0.09960650652647018,1.1486464738845825,0.012578066438436508,0.029306231066584587,0.005398520268499851,2.753348780970555e-06,0.00017077838128898293,3.695014715194702,10.0,0.0,7000.0,7000.0,7000.0,7000.0,0.272,32.766,0.281,32.766,2.852,2018.821533203125,809.9354248046875,32.23985290527344,,False,
1783703874.7693486,2026-07-10T10:17:54,13089,20260710_101749,,,,,,arming,,,,,,,,,False,0.021501993760466576,0.0028248403687030077,1.0000945329666138,-0.2773209512233734,-0.08616933971643448,0.29226601123809814,-1.0,0.0,50.0,30.0,0.03,0.0018541477620601654,-0.00021780512179248035,0.02948027290403843,0.005727325100451708,0.0014015643391758204,0.005713094491511583,0.09960650652647018,1.1486464738845825,0.012578066438436508,0.029592027887701988,0.0054687918163836,4.697332315117819e-06,0.0002207728975918144,3.7002933025360107,10.0,0.0,7000.0,7000.0,7000.0,7000.0,0.272,32.766,0.281,32.766,2.852,2018.821533203125,809.9354248046875,32.23985290527344,,False,
1783703874.7795582,2026-07-10T10:17:54,13097,20260710_101749,,,,,,arming,,,,,,,,,False,0.019522855058312416,-0.0008507107850164175,1.0040125846862793,0.17203845083713531,0.26553449034690857,0.7667827606201172,1.0,0.0,39.0,29.0,0.029,0.001853412832133472,-0.00021276898041833192,0.02933930791914463,0.005451112985610962,0.001144175766967237,0.004265786614269018,0.09817788004875183,1.1501649618148804,0.01984235644340515,0.029592027887701988,0.0054687918163836,4.697332315117819e-06,0.0002207728975918144,3.7002933025360107,10.0,0.0,7000.0,7000.0,7000.0,7000.0,0.269,32.766,0.278,32.766,2.84,2018.821533203125,809.9354248046875,32.23985290527344,,False,
1783703874.7897198,2026-07-10T10:17:54,13105,20260710_101749,,,,,,arming,,,,,,,,,False,0.024573281407356262,0.002872781828045845,0.9995437860488892,0.08283784240484238,0.442441463470459,-1.1577304601669312,3.0,1.0,60.0,29.0,0.029,0.001853412832133472,-0.00021276898041833192,0.02933930791914463,0.005451112985610962,0.001144175766967237,0.004265786614269018,0.09817788004875183,1.1501649618148804,0.01984235644340515,0.029592027887701988,0.0054687918163836,4.697332315117819e-06,0.0002207728975918144,3.7002933025360107,10.0,0.0,7000.0,7000.0,7000.0,7000.0,0.269,32.766,0.278,32.766,2.84,2018.821533203125,809.9354248046875,32.23985290527344,,False,
1783703874.7998822,2026-07-10T10:17:54,13117,20260710_101749,,,,,,arming,,,,,,,,,False,0.019771773368120193,0.0016171286115422845,0.9976951479911804,0.2955566644668579,-0.18655575811862946,0.027004851028323174,-6.0,-1.0,67.0,29.0,0.029,0.0018537860596552491,0.00040681834798306227,0.029435688629746437,0.005291101988404989,0.004381896462291479,0.004504458513110876,0.07351700961589813,1.1495156288146973,0.016038740053772926,0.029592027887701988,0.0054687918163836,4.697332315117819e-06,0.0002207728975918144,3.7002933025360107,10.0,0.0,7000.0,7000.0,7000.0,7000.0,0.269,32.766,0.278,32.766,2.84,2018.821533203125,809.9354248046875,32.23985290527344,,False,
1783703874.8102126,2026-07-10T10:17:54,13125,20260710_101749,,,,,,arming,,,,,,,,,False,0.02338395081460476,0.0020265381317585707,1.0035269260406494,-0.18943162262439728,0.5338297486305237,0.3685050308704376,6.0,2.0,64.0,29.0,0.029,0.0018537860596552491,0.00040681834798306227,0.029435688629746437,0.005291101988404989,0.004381896462291479,0.004504458513110876,0.07351700961589813,1.1495156288146973,0.016038740053772926,0.029592027887701988,0.0054687918163836,4.697332315117819e-06,0.0002207728975918144,3.7002933025360107,10.0,0.0,7000.0,7000.0,7000.0,7000.0,0.269,32.766,0.278,32.766,2.84,2018.821533203125,809.9354248046875,32.23985290527344,,False,
1783703874.8204467,2026-07-10T10:17:54,13141,20260710_101749,,,,,,arming,,,,,,,,,False,0.019219378009438515,-0.0027358275838196278,1.003167748451233,0.4864647686481476,0.3841818869113922,-0.4340111017227173,-3.0,1.0,51.0,29.0,0.029,-1.1427806384745054e-05,-1.5481218724744394e-05,0.029012277722358704,-0.002457753987982869,-0.003781198523938656,7.98275214037858e-05,-0.00399255333468318,-0.004000951535999775,-0.004107920452952385,0.02901408076286316,0.0002807576092891395,6.270322046475485e-06,0.00011600000289035961,3.695014715194702,10.0,0.0,7000.0,7000.0,7000.0,7000.0,0.269,32.766,0.278,32.766,2.84,2018.7996826171875,809.9376220703125,32.24331283569336,,False,
1783703874.8306127,2026-07-10T10:17:54,13151,20260710_101749,,,,,,arming,,,,,,,,,False,0.018245281651616096,0.0021605819929391146,1.0007085800170898,0.21435482800006866,-0.10873943567276001,0.13479487597942352,1.0,-2.0,54.0,29.0,0.029,-1.1427806384745054e-05,-1.5481218724744394e-05,0.029012277722358704,-0.002457753987982869,-0.003781198523938656,7.98275214037858e-05,-0.00399255333468318,-0.004000951535999775,-0.004107920452952385,0.02901408076286316,0.0002807576092891395,6.270322046475485e-06,0.00011600000289035961,3.695014715194702,10.0,0.0,7000.0,7000.0,7000.0,7000.0,0.269,32.766,0.278,32.766,2.84,2018.7996826171875,809.9376220703125,32.24331283569336,,False,
1783703874.8407614,2026-07-10T10:17:54,13161,20260710_101749,,,,,,arming,,,,,,,,,False,0.025700731202960014,0.001759768696501851,1.0011839866638184,0.05725127458572388,0.5550379157066345,-0.5633306503295898,3.0,1.0,67.0,29.0,0.029,2.3107315882953117e-06,-0.00018274203466717154,0.02901039831340313,0.002629573456943035,-0.007947945967316628,0.0002814546169247478,0.046890635043382645,-0.004476187285035849,-0.0074572088196873665,0.02901408076286316,0.0002807576092891395,6.270322046475485e-06,0.00011600000289035961,3.695014715194702,10.0,0.0,7000.0,7000.0,7000.0,7000.0,0.269,32.766,0.278,32.766,2.84,2018.7996826171875,809.9376220703125,32.24331283569336,,False,
1783703874.850905,2026-07-10T10:17:54,13171,20260710_101749,,,,,,arming,,,,,,,,,False,0.02523079514503479,0.0013640988618135452,1.0011894702911377,0.06513135880231857,0.1266792118549347,0.22846686840057373,-3.0,0.0,59.0,29.0,0.029,2.3107315882953117e-06,-0.00018274203466717154,0.02901039831340313,0.002629573456943035,-0.007947945967316628,0.0002814546169247478,0.046890635043382645,-0.004476187285035849,-0.0074572088196873665,0.02901408076286316,0.0002807576092891395,6.270322046475485e-06,0.00011600000289035961,3.695014715194702,10.0,0.0,7000.0,7000.0,7000.0,7000.0,0.269,32.766,0.278,32.766,2.84,2018.7996826171875,809.9376220703125,32.24331283569336,,False,
1783703874.861049,2026-07-10T10:17:54,13181,20260710_101749,,,,,,arming,,,,,,,,,False,0.020579583942890167,-0.003484055632725358,0.9991240501403809,-0.03575766459107399,-0.15491676330566406,0.28458961844444275,3.0,0.0,72.0,29.0,0.029,7.454158185282722e-05,-0.00030999325099401176,0.029033701866865158,0.006377717014402151,-0.007183456793427467,0.0006106189684942365,0.05093247815966606,0.0009502379107289016,-0.009975062683224678,0.02901408076286316,0.0002807576092891395,6.270322046475485e-06,0.00011600000289035961,3.695014715194702,10.0,0.0,7000.0,7000.0,7000.0,7000.0,0.269,32.766,0.278,32.766,2.84,2018.7996826171875,809.9376220703125,32.24331283569336,,False,
1783703874.8712223,2026-07-10T10:17:54,13191,20260710_101749,,,,,,arming,,,,,,,,,False,0.018318861722946167,0.002604903420433402,0.9997768402099609,0.3527783453464508,0.27474382519721985,-0.17142637073993683,0.0,2.0,51.0,29.0,0.029,7.454158185282722e-05,-0.00030999325099401176,0.029033701866865158,0.006377717014402151,-0.007183456793427467,0.0006106189684942365,0.05093247815966606,0.0009502379107289016,-0.009975062683224678,0.029061906039714813,0.000551501871086657,6.720225883327657e-06,0.0001659992994973436,3.7055718898773193,10.0,0.0,7000.0,7000.0,7000.0,7000.0,32.766,32.766,0.278,32.766,2.849,2018.7996826171875,809.9376220703125,32.24331283569336,,False,
1783703874.8813705,2026-07-10T10:17:54,13201,20260710_101749,,,,,,arming,,,,,,,,,False,0.020666426047682762,0.0006946882931515574,0.9966517090797424,-0.30059704184532166,0.17755623161792755,-0.17555822432041168,-4.0,-1.0,48.0,29.0,0.029,0.0001326930505456403,-0.00015905335021670908,0.02903708629310131,0.008701729588210583,-0.0013538023922592402,0.0005333319422788918,-0.10976870357990265,0.047626201063394547,-0.012139531783759594,0.029061906039714813,0.000551501871086657,6.720225883327657e-06,0.0001659992994973436,3.7055718898773193,10.0,0.0,7000.0,7000.0,7000.0,7000.0,32.766,32.766,0.278,32.766,2.849,2018.7996826171875,809.9376220703125,32.24331283569336,,False,
1783703874.8915155,2026-07-10T10:17:54,13211,20260710_101749,,,,,,arming,,,,,,,,,False,0.022928383201360703,0.00396396080031991,0.9992358684539795,0.03940889239311218,0.26499301195144653,-0.268258661031723,3.0,0.0,62.0,29.0,0.029,0.0001326930505456403,-0.00015905335021670908,0.02903708629310131,0.008701729588210583,-0.0013538023922592402,0.0005333319422788918,-0.10976870357990265,0.047626201063394547,-0.012139531783759594,0.029061906039714813,0.000551501871086657,6.720225883327657e-06,0.0001659992994973436,3.7055718898773193,10.0,0.0,7000.0,7000.0,7000.0,7000.0,32.766,32.766,0.278,32.766,2.849,2018.7996826171875,809.9376220703125,32.24331283569336,,False,
1783703874.901669,2026-07-10T10:17:54,13221,20260710_101749,,,,,,arming,,,,,,,,,False,0.021944083273410797,0.004394508898258209,1.001186728477478,0.13981276750564575,-0.0013575201155617833,0.40987223386764526,-3.0,-2.0,69.0,29.0,0.029,0.0004183808923698962,-0.00016454074648208916,0.029049308970570564,0.013845319859683514,-0.00022883752535562962,0.0004207544552627951,-0.13534456491470337,0.005200408864766359,-0.013291912153363228,0.029061906039714813,0.000551501871086657,6.720225883327657e-06,0.0001659992994973436,3.7055718898773193,10.0,0.0,7000.0,7000.0,7000.0,7000.0,32.766,32.766,0.278,32.766,2.849,2018.7996826171875,809.9376220703125,32.24331283569336,,False,
1783703874.911828,2026-07-10T10:17:54,13231,20260710_101749,,,,,,arming,,,,,,,,,False,0.021304644644260406,0.0026218662969768047,0.9990314245223999,0.31598395109176636,0.12470759451389313,0.5748959183692932,1.0,-1.0,64.0,29.0,0.029,0.0004183808923698962,-0.00016454074648208916,0.029049308970570564,0.013845319859683514,-0.00022883752535562962,0.0004207544552627951,-0.13534456491470337,0.005200408864766359,-0.013291912153363228,0.029061906039714813,0.000551501871086657,6.720225883327657e-06,0.0001659992994973436,3.7055718898773193,10.0,0.0,7000.0,7000.0,7000.0,7000.0,32.766,32.766,0.278,32.766,2.849,2018.7996826171875,809.9376220703125,32.24331283569336,,False,
1783703874.9219723,2026-07-10T10:17:54,13241,20260710_101749,,,,,,arming,,,,,,,,,False,0.022579774260520935,0.004742142744362354,1.0016971826553345,0.006241044029593468,0.38541513681411743,0.2878060042858124,-1.0,0.0,50.0,34.0,0.034,0.0006771911284886301,-0.00016691152995917946,0.030939143151044846,0.017181869596242905,0.0009426756878383458,0.005766077432781458,-0.13824419677257538,0.03708880767226219,-0.008722302503883839,0.030996184796094894,0.005633523687720299,2.540262585171149e-06,0.00019807297212537378,3.7055718898773193,10.0,0.0,7000.0,7000.0,7000.0,7000.0,32.766,32.766,0.278,32.766,2.849,2018.7451171875,809.9425048828125,32.246971130371094,,False,
1783703874.932174,2026-07-10T10:17:54,13251,20260710_101749,,,,,,arming,,,,,,,,,False,0.020961381494998932,0.00020804234372917563,0.9990515112876892,-0.35024675726890564,-0.14867003262043,-0.39413800835609436,1.0,0.0,51.0,34.0,0.034,0.0006771911284886301,-0.00016691152995917946,0.030939143151044846,0.017181869596242905,0.0009426756878383458,0.005766077432781458,-0.13824419677257538,0.03708880767226219,-0.008722302503883839,0.030996184796094894,0.005633523687720299,2.540262585171149e-06,0.00019807297212537378,3.7055718898773193,10.0,0.0,7000.0,7000.0,7000.0,7000.0,32.766,32.766,0.278,32.766,2.849,2018.7451171875,809.9425048828125,32.246971130371094,,False,
1783703874.9423892,2026-07-10T10:17:54,13261,20260710_101749,,,,,,arming,,,,,,,,,False,0.02074732631444931,-0.0010204974096268415,0.9991676211357117,0.2680162787437439,0.008362405002117157,0.17858894169330597,-1.0,2.0,60.0,34.0,0.034,0.0005878768861293793,-0.00015027965127956122,0.03107203170657158,0.014744993299245834,0.0018837887328118086,0.00588415889069438,-0.1401575654745102,0.22783826291561127,-0.0093357739970088,0.030996184796094894,0.005633523687720299,2.540262585171149e-06,0.00019807297212537378,3.7055718898773193,10.0,0.0,7000.0,7000.0,7000.0,7000.0,32.766,32.766,0.278,32.766,2.849,2018.7451171875,809.9425048828125,32.246971130371094,,False,
1783703874.9525645,2026-07-10T10:17:54,13271,20260710_101749,,,,,,arming,,,,,,,,,False,0.018635015934705734,0.0019676329102367163,1.000206470489502,-0.26305899024009705,-0.5097355842590332,0.1145482212305069,3.0,0.0,63.0,34.0,0.034,0.0005878768861293793,-0.00015027965127956122,0.03107203170657158,0.014744993299245834,0.0018837887328118086,0.00588415889069438,-0.1401575654745102,0.22783826291561127,-0.0093357739970088,0.030996184796094894,0.005633523687720299,2.540262585171149e-06,0.00019807297212537378,3.7055718898773193,10.0,0.0,7000.0,7000.0,7000.0,7000.0,32.766,32.766,0.278,32.766,2.849,2018.7451171875,809.9425048828125,32.246971130371094,,False,
1783703874.9627278,2026-07-10T10:17:54,13281,20260710_101749,,,,,,arming,,,,,,,,,False,0.02464766800403595,-4.5761338697047904e-05,1.0003159046173096,0.033929191529750824,0.24339014291763306,0.04487698897719383,0.0,-1.0,69.0,34.0,0.034,0.0008185091428458691,-0.0005438386579044163,0.0311953853815794,0.016922365874052048,-0.003001635894179344,0.005827725399285555,0.010553447529673576,0.26238229870796204,-0.0082198241725564,0.030996184796094894,0.005633523687720299,2.540262585171149e-06,0.00019807297212537378,3.7055718898773193,10.0,0.0,7000.0,7000.0,7000.0,7000.0,32.766,32.766,0.278,32.766,2.849,2018.7451171875,809.9425048828125,32.246971130371094,,False,
1783703874.9728904,2026-07-10T10:17:54,13291,20260710_101749,,,,,,arming,,,,,,,,,False,0.019247671589255333,0.004505576565861702,1.0020123720169067,-0.02376251295208931,0.3304552733898163,-0.5916496515274048,-2.0,-1.0,49.0,34.0,0.034,0.0008185091428458691,-0.0005438386579044163,0.0311953853815794,0.016922365874052048,-0.003001635894179344,0.005827725399285555,0.010553447529673576,0.26238229870796204,-0.0082198241725564,0.03131326660513878,0.005747493356466293,3.977693268097937e-06,0.0002480611437931657,3.7055718898773193,10.0,0.0,7000.0,7000.0,7000.0,7000.0,32.766,32.766,0.274,32.766,32.766,2018.7451171875,809.9425048828125,32.246971130371094,,False,
1783703874.9830544,2026-07-10T10:17:54,13301,20260710_101749,,,,,,arming,,,,,,,,,False,0.02243664488196373,0.003461470827460289,0.9985440969467163,-0.16612793505191803,0.13643710315227509,-0.2519949972629547,-1.0,0.0,46.0,32.0,0.032,0.0010606147116050124,-0.0001054922176990658,0.03158316761255264,0.018696464598178864,0.0028707750607281923,0.00721678277477622,-0.14503063261508942,0.30337798595428467,-0.00933931302279234,0.03131326660513878,0.005747493356466293,3.977693268097937e-06,0.0002480611437931657,3.7055718898773193,10.0,0.0,7000.0,7000.0,7000.0,7000.0,32.766,32.766,0.274,32.766,32.766,2018.7451171875,809.9425048828125,32.246971130371094,,False,
1783703874.993306,2026-07-10T10:17:54,13311,20260710_101749,,,,,,arming,,,,,,,,,False,0.020943643525242805,0.0006513366824947298,1.004622459411621,-0.05729937180876732,-0.26874014735221863,0.5025870203971863,0.0,2.0,57.0,32.0,0.032,0.0010606147116050124,-0.0001054922176990658,0.03158316761255264,0.018696464598178864,0.0028707750607281923,0.00721678277477622,-0.14503063261508942,0.30337798595428467,-0.00933931302279234,0.03131326660513878,0.005747493356466293,3.977693268097937e-06,0.0002480611437931657,3.7055718898773193,10.0,0.0,7000.0,7000.0,7000.0,7000.0,32.766,32.766,0.274,32.766,32.766,2018.7451171875,809.9425048828125,32.246971130371094,,False,
1783703875.0034654,2026-07-10T10:17:55,13321,20260710_101749,,,,,,arming,,,,,,,,,False,0.017723843455314636,0.0038787354715168476,1.002036213874817,0.2512049078941345,0.20213764905929565,0.5320400595664978,0.0,0.0,71.0,32.0,0.032,0.0009249782306142151,-6.0616959672188386e-05,0.031741559505462646,0.015827015042304993,0.0037214080803096294,0.007376015651971102,-0.14012916386127472,0.45351818203926086,-0.006663917563855648,0.03131326660513878,0.005747493356466293,3.977693268097937e-06,0.0002480611437931657,3.7055718898773193,10.0,0.0,7000.0,7000.0,7000.0,7000.0,32.766,32.766,0.274,32.766,32.766,2018.7451171875,809.9425048828125,32.246971130371094,,False,
1783703875.0136383,2026-07-10T10:17:55,13331,20260710_101749,,,,,,arming,,,,,,,,,False,0.024015003815293312,0.00021028371702414006,0.9965059161186218,-0.5704017877578735,-0.16347120702266693,-0.17476147413253784,3.0,0.0,61.0,32.0,0.032,0.0009249782306142151,-6.0616959672188386e-05,0.031741559505462646,0.015827015042304993,0.0037214080803096294,0.007376015651971102,-0.14012916386127472,0.45351818203926086,-0.006663917563855648,0.03131326660513878,0.005747493356466293,3.977693268097937e-06,0.0002480611437931657,3.7055718898773193,10.0,0.0,7000.0,7000.0,7000.0,7000.0,32.766,32.766,0.274,32.766,32.766,2018.7451171875,809.9425048828125,32.246971130371094,,False,
1783703875.0237975,2026-07-10T10:17:55,13341,20260710_101749,,,,,,arming,,,,,,,,,False,0.018302028998732567,-0.0014884693082422018,1.000281810760498,0.18710464239120483,0.0575542189180851,-0.5780016779899597,-3.0,1.0,56.0,33.0,0.033,0.0007448180695064366,-4.592712502926588e-05,0.032320935279130936,0.012788166292011738,0.004312380217015743,0.01018435787409544,-0.13016746938228607,0.5851895213127136,-0.008037321269512177,0.03242231160402298,0.009957212954759598,2.6458972115506185e-06,0.00021187028323765844,3.7055718898773193,10.0,0.0,7000.0,7000.0,7000.0,7000.0,32.766,32.766,0.274,32.766,32.766,2018.7669677734375,809.9402465820312,32.244537353515625,,False,
1783703875.0339577,2026-07-10T10:17:55,13351,20260710_101749,,,,,,arming,,,,,,,,,False,0.024341972544789314,0.0046187881380319595,1.0006955862045288,0.1279301941394806,0.29710879921913147,-0.6144188642501831,3.0,0.0,55.0,33.0,0.033,0.0007448180695064366,-4.592712502926588e-05,0.032320935279130936,0.012788166292011738,0.004312380217015743,0.01018435787409544,-0.13016746938228607,0.5851895213127136,-0.008037321269512177,0.03242231160402298,0.009957212954759598,2.6458972115506185e-06,0.00021187028323765844,3.7055718898773193,10.0,0.0,7000.0,7000.0,7000.0,7000.0,32.766,32.766,0.274,32.766,32.766,2018.7669677734375,809.9402465820312,32.244537353515625,,False,
1783703875.0441852,2026-07-10T10:17:55,13365,20260710_101749,,,,,,arming,,,,,,,,,False,0.019004331901669502,-0.0005067838937975466,0.9998261332511902,0.09787574410438538,0.3322235941886902,0.6325407028198242,-2.0,0.0,61.0,33.0,0.033,0.0009566029184497893,-0.0006542262271977961,0.03252948075532913,0.014377648942172527,-0.0021947019267827272,0.01028155256062746,0.027348008006811142,0.5945312976837158,-0.011590322479605675,0.03242231160402298,0.009957212954759598,2.6458972115506185e-06,0.00021187028323765844,3.7055718898773193,10.0,0.0,7000.0,7000.0,7000.0,7000.0,32.766,32.766,0.274,32.766,32.766,2018.7669677734375,809.9402465820312,32.244537353515625,,False,
1783703875.0543823,2026-07-10T10:17:55,13375,20260710_101749,,,,,,arming,,,,,,,,,False,0.02079046331346035,0.005156134720891714,0.9982853531837463,-0.2394396960735321,-0.31511664390563965,0.3230593800544739,-1.0,-2.0,75.0,33.0,0.033,0.0009566029184497893,-0.0006542262271977961,0.03252948075532913,0.014377648942172527,-0.0021947019267827272,0.01028155256062746,0.027348008006811142,0.5945312976837158,-0.011590322479605675,0.03242231160402298,0.009957212954759598,2.6458972115506185e-06,0.00021187028323765844,3.7055718898773193,10.0,0.0,7000.0,7000.0,7000.0,7000.0,32.766,32.766,0.274,32.766,32.766,2018.7669677734375,809.9402465820312,32.244537353515625,,False,
1783703875.0645912,2026-07-10T10:17:55,13385,20260710_101749,,,,,,arming,,,,,,,,,False,0.019220275804400444,-0.0016895965673029423,1.000040888786316,0.27471697330474854,0.2879897654056549,0.13532625138759613,0.0,0.0,50.0,33.0,0.033,0.0013678682735189795,-2.842562935256865e-05,0.032734595239162445,0.01750837452709675,0.004291710443794727,0.010194750502705574,-0.10755156725645065,0.5680492520332336,-0.008361627347767353,0.03242231160402298,0.009957212954759598,2.6458972115506185e-06,0.00021187028323765844,3.7055718898773193,10.0,0.0,7000.0,7000.0,7000.0,7000.0,32.766,32.766,0.274,32.766,32.766,2018.7669677734375,809.9402465820312,32.244537353515625,,False,
1783703875.0748317,2026-07-10T10:17:55,13395,20260710_101749,,,,,,arming,,,,,,,,,False,0.02126646228134632,0.0033369213342666626,1.000684142112732,0.07638289034366608,0.12261899560689926,-0.5552393198013306,0.0,0.0,46.0,32.0,0.032,0.0013678682735189795,-2.842562935256865e-05,0.032734595239162445,0.01750837452709675,0.004291710443794727,0.010194750502705574,-0.10755156725645065,0.5680492520332336,-0.008361627347767353,0.0329364575445652,0.009920435957610607,4.7761882342456374e-06,0.0002618566795717925,3.7055718898773193,10.0,0.0,7000.0,7000.0,7000.0,7000.0,0.272,32.766,0.275,32.766,32.766,2018.7669677734375,809.9402465820312,32.244537353515625,,False,
1783703875.084994,2026-07-10T10:17:55,13405,20260710_101749,,,,,,arming,,,,,,,,,False,0.02191484160721302,0.0032128654420375824,0.9996715188026428,-0.25337231159210205,-0.16631020605564117,0.05116146802902222,1.0,0.0,54.0,32.0,0.032,0.001735276193358004,6.685219705104828e-05,0.03253115341067314,0.019533589482307434,0.005067068617790937,0.007772900629788637,-0.10472583770751953,0.5627469420433044,-0.009302303194999695,0.0329364575445652,0.009920435957610607,4.7761882342456374e-06,0.0002618566795717925,3.7055718898773193,10.0,0.0,7000.0,7000.0,7000.0,7000.0,0.272,32.766,0.275,32.766,32.766,2018.7669677734375,809.9402465820312,32.244537353515625,,False,
1783703875.0952475,2026-07-10T10:17:55,13416,20260710_101749,,,,,,arming,,,,,,,,,False,0.021319782361388206,0.00030988355865702033,0.9996502995491028,0.636961042881012,-0.040616076439619064,0.3790179491043091,2.0,0.0,68.0,32.0,0.032,0.0015930383233353496,-0.0007567578577436507,0.03270019218325615,0.017024990171194077,-0.0019237759988754988,0.00787373911589384,-0.10472583770751953,0.5627469420433044,-0.009302303194999695,0.0329364575445652,0.009920435957610607,4.7761882342456374e-06,0.0002618566795717925,3.7055718898773193,10.0,0.0,7000.0,7000.0,7000.0,7000.0,0.272,32.766,0.275,32.766,32.766,2018.7669677734375,809.9402465820312,32.244537353515625,,False,
1783703875.1054106,2026-07-10T10:17:55,13425,20260710_101749,,,,,,arming,,,,,,,,,False,0.02065679430961609,0.009109321050345898,0.9983195662498474,-0.5543004274368286,-0.10951384156942368,0.2401377111673355,0.0,2.0,62.0,32.0,0.032,0.0015930383233353496,-0.0007567578577436507,0.03270019218325615,0.017024990171194077,-0.0019237759988754988,0.00787373911589384,0.05416448414325714,0.6584526896476746,-0.007527628447860479,0.0329364575445652,0.009920435957610607,4.7761882342456374e-06,0.0002618566795717925,3.7055718898773193,10.0,0.0,7000.0,7000.0,7000.0,7000.0,0.272,32.766,0.275,32.766,32.766,2018.7669677734375,809.9402465820312,32.244537353515625,,False,
1783703875.1155963,2026-07-10T10:17:55,13436,20260710_101749,,,,,,arming,,,,,,,,,False,0.018380537629127502,-0.001837406656704843,0.9984878301620483,-0.05422540381550789,0.6154355406761169,0.4981810748577118,-3.0,2.0,52.0,32.0,0.032,0.00045913131907582283,3.4928423701785505e-05,0.032516755163669586,0.006875659804791212,0.005450692027807236,0.005825372412800789,0.05416448414325714,0.6584526896476746,-0.007527628447860479,0.0329364575445652,0.009920435957610607,4.7761882342456374e-06,0.0002618566795717925,3.7055718898773193,10.0,0.0,7000.0,7000.0,7000.0,7000.0,0.272,32.766,0.275,32.766,32.766,2018.7669677734375,809.9402465820312,32.244537353515625,,False,
1783703875.1257763,2026-07-10T10:17:55,13445,20260710_101749,,,,,,arming,,,,,,,,,False,0.0211107786744833,0.00585320545360446,0.9978888034820557,-0.08767778426408768,0.08859952539205551,-0.7132593989372253,4.0,-1.0,55.0,32.0,0.032,0.00045913131907582283,3.4928423701785505e-05,0.032516755163669586,0.006875659804791212,0.005450692027807236,0.005825372412800789,-0.07956470549106598,0.8870495557785034,-0.0032774091232568026,0.03257536515593529,0.0057918718084692955,2.851150384231005e-06,0.00018793364870361984,3.7055718898773193,10.0,0.0,7000.0,7000.0,7000.0,7000.0,0.272,32.766,0.275,32.766,32.766,2018.7669677734375,809.9403686523438,32.24129867553711,,False,
1783703875.1359434,2026-07-10T10:17:55,13456,20260710_101749,,,,,,arming,,,,,,,,,False,0.022033510729670525,-0.0005974422092549503,0.9979344606399536,0.027014829218387604,0.46696314215660095,-0.5095085501670837,0.0,0.0,54.0,32.0,0.032,0.0007850844413042068,-0.0010424565989524126,0.03264174237847328,0.009116791188716888,-0.0028851113747805357,0.0058158449828624725,-0.07956470549106598,0.8870495557785034,-0.0032774091232568026,0.03257536515593529,0.0057918718084692955,2.851150384231005e-06,0.00018793364870361984,3.7055718898773193,10.0,0.0,7000.0,7000.0,7000.0,7000.0,0.272,32.766,0.275,32.766,32.766,2018.7669677734375,809.9403686523438,32.24129867553711,,False,
1783703875.1467674,2026-07-10T10:17:55,13465,20260710_101749,,,,,,arming,,,,,,,,,False,0.02069147862493992,0.003121477086097002,1.0031476020812988,-0.2273309975862503,0.11739487946033478,-0.6613426804542542,0.0,0.0,57.0,32.0,0.032,0.0007850844413042068,-0.0010424565989524126,0.03264174237847328,0.009116791188716888,-0.0028851113747805357,0.0058158449828624725,0.0846659243106842,0.857886791229248,-0.008463384583592415,0.03257536515593529,0.0057918718084692955,2.851150384231005e-06,0.00018793364870361984,3.7055718898773193,10.0,0.0,7000.0,7000.0,7000.0,7000.0,0.272,32.766,0.275,32.766,32.766,2018.7669677734375,809.9403686523438,32.24129867553711,,False,
1783703875.157048,2026-07-10T10:17:55,13477,20260710_101749,,,,,,arming,,,,,,,,,False,0.024866672232747078,0.0043153115548193455,1.0019621849060059,-0.06795889884233475,0.19367802143096924,0.06455529481172562,-7.0,-1.0,74.0,32.0,0.032,0.0011345817474648356,0.0010956567712128162,0.03276846557855606,0.011445865966379642,0.013413130305707455,0.005802555941045284,-0.2074466347694397,0.8341991305351257,-0.00479400297626853,0.03257536515593529,0.0057918718084692955,2.851150384231005e-06,0.00018793364870361984,3.7055718898773193,10.0,0.0,7000.0,7000.0,7000.0,7000.0,0.272,32.766,0.275,32.766,32.766,2018.7669677734375,809.9403686523438,32.24129867553711,,False,
1783703875.1673222,2026-07-10T10:17:55,13488,20260710_101749,,,,,,arming,,,,,,,,,False,0.019840028136968613,-0.002880656626075506,1.001997947692871,0.3203277587890625,-0.14249861240386963,0.638911783695221,2.0,-2.0,51.0,32.0,0.032,0.0011345817474648356,0.0010956567712128162,0.03276846557855606,0.011445865966379642,0.013413130305707455,0.005802555941045284,-0.2074466347694397,0.8341991305351257,-0.00479400297626853,0.03290567919611931,0.006153744645416737,4.9889868023456074e-06,0.0002379180514253676,3.7055718898773193,10.0,0.0,7000.0,7000.0,7000.0,7000.0,0.272,32.766,0.275,32.766,32.766,2018.7669677734375,809.9403686523438,32.24129867553711,,False,
1783703875.1775262,2026-07-10T10:17:55,13497,20260710_101749,,,,,,arming,,,,,,,,,False,0.02136504091322422,0.004336090758442879,1.001883625984192,-0.08060838282108307,-0.22545026242733002,0.35690534114837646,1.0,0.0,52.0,32.0,0.032,0.0016020809998735785,9.537985897623003e-05,0.03250822424888611,0.014350506477057934,0.0052212378941476345,0.004221214447170496,-0.055135391652584076,0.8068925142288208,-0.006380610633641481,0.03290567919611931,0.006153744645416737,4.9889868023456074e-06,0.0002379180514253676,3.7055718898773193,10.0,0.0,7000.0,7000.0,7000.0,7000.0,32.766,32.766,0.275,32.766,2.838,2018.7669677734375,809.9403686523438,32.24129867553711,,False,
1783703875.1876862,2026-07-10T10:17:55,13505,20260710_101749,,,,,,arming,,,,,,,,,False,0.023096757009625435,-0.0027017774991691113,0.9971131086349487,0.2561236023902893,0.31103193759918213,0.39744412899017334,0.0,1.0,59.0,32.0,0.032,0.0016020809998735785,9.537985897623003e-05,0.03250822424888611,0.014350506477057934,0.0052212378941476345,0.004221214447170496,-0.055135391652584076,0.8068925142288208,-0.006380610633641481,0.03290567919611931,0.006153744645416737,4.9889868023456074e-06,0.0002379180514253676,3.7055718898773193,10.0,0.0,7000.0,7000.0,7000.0,7000.0,32.766,32.766,0.275,32.766,2.838,2018.7669677734375,809.9403686523438,32.24129867553711,,False,
1783703875.1978545,2026-07-10T10:17:55,13517,20260710_101749,,,,,,arming,,,,,,,,,False,0.022919926792383194,0.005013976711779833,1.0009667873382568,-0.2805427312850952,0.1608826369047165,-0.6314030289649963,0.0,-1.0,62.0,32.0,0.032,0.0014806835679337382,5.37801934115123e-05,0.03259934112429619,0.013182739727199078,0.004610178992152214,0.004349368158727884,-0.03913920372724533,0.849903404712677,-0.0068156239576637745,0.03290567919611931,0.006153744645416737,4.9889868023456074e-06,0.0002379180514253676,3.7055718898773193,10.0,0.0,7000.0,7000.0,7000.0,7000.0,32.766,32.766,0.275,32.766,2.838,2018.7669677734375,809.9403686523438,32.24129867553711,,False,
1783703875.2080557,2026-07-10T10:17:55,13525,20260710_101749,,,,,,arming,,,,,,,,,False,0.022936347872018814,-0.00409148121252656,0.9990254044532776,-0.08600419014692307,0.08585791289806366,-0.33053597807884216,1.0,0.0,62.0,32.0,0.032,0.0014806835679337382,5.37801934115123e-05,0.03259934112429619,0.013182739727199078,0.004610178992152214,0.004349368158727884,-0.03913920372724533,0.849903404712677,-0.0068156239576637745,0.03290567919611931,0.006153744645416737,4.9889868023456074e-06,0.0002379180514253676,3.7055718898773193,10.0,0.0,7000.0,7000.0,7000.0,7000.0,32.766,32.766,0.275,32.766,2.838,2018.7669677734375,809.9403686523438,32.24129867553711,,False,
1783703875.218266,2026-07-10T10:17:55,13539,20260710_101749,,,,,,arming,,,,,,,,,False,0.020273422822356224,0.0026250965893268585,1.0041884183883667,0.42782875895500183,0.02172131836414337,0.18629571795463562,0.0,0.0,71.0,31.0,0.031,0.0015566940419375896,-0.00023010805307421833,0.032004088163375854,0.013560567982494831,0.002310933079570532,0.0007978464127518237,-0.0012258910574018955,0.8695032000541687,-0.006525225937366486,0.032013725489377975,0.000916233635507524,2.829400727932807e-06,0.0001739684958010912,3.7055718898773193,10.0,0.0,7000.0,7000.0,7000.0,7000.0,32.766,32.766,0.275,32.766,2.838,2018.7669677734375,809.9403686523438,32.24129867553711,,False,
1783703875.228468,2026-07-10T10:17:55,13545,20260710_101749,,,,,,arming,,,,,,,,,False,0.02340150624513626,0.0037184525281190872,0.9997750520706177,-0.46643880009651184,0.02045578323304653,-0.00847847480326891,2.0,2.0,62.0,31.0,0.031,0.0015566940419375896,-0.00023010805307421833,0.032004088163375854,0.013560567982494831,0.002310933079570532,0.0007978464127518237,-0.0012258910574018955,0.8695032000541687,-0.006525225937366486,0.032013725489377975,0.000916233635507524,2.829400727932807e-06,0.0001739684958010912,3.7055718898773193,10.0,0.0,7000.0,7000.0,7000.0,7000.0,32.766,32.766,0.275,32.766,2.838,2018.7176513671875,809.9450073242188,32.23904800415039,,False,
1783703875.2386248,2026-07-10T10:17:55,13557,20260710_101749,,,,,,arming,,,,,,,,,False,0.018867166712880135,-0.0024222806096076965,0.9996891021728516,-0.01512648444622755,-0.3335931599140167,0.2129087895154953,1.0,1.0,58.0,31.0,0.031,0.000524659117218107,-0.0011294955620542169,0.03202792629599571,0.006292394828051329,-0.0034264889545738697,0.0012080010492354631,0.08615782111883163,0.9987016916275024,-0.007310784887522459,0.032013725489377975,0.000916233635507524,2.829400727932807e-06,0.0001739684958010912,3.7055718898773193,10.0,0.0,7000.0,7000.0,7000.0,7000.0,32.766,32.766,0.275,32.766,2.838,2018.7176513671875,809.9450073242188,32.23904800415039,,False,
1783703875.2488096,2026-07-10T10:17:55,13565,20260710_101749,,,,,,arming,,,,,,,,,False,0.022483516484498978,0.005464308895170689,0.9976165294647217,-0.010461158119142056,-0.11841334402561188,-0.540890097618103,-2.0,-3.0,56.0,31.0,0.031,0.000524659117218107,-0.0011294955620542169,0.03202792629599571,0.006292394828051329,-0.0034264889545738697,0.0012080010492354631,0.08615782111883163,0.9987016916275024,-0.007310784887522459,0.032013725489377975,0.000916233635507524,2.829400727932807e-06,0.0001739684958010912,3.7055718898773193,10.0,0.0,7000.0,7000.0,7000.0,7000.0,32.766,32.766,0.275,32.766,2.838,2018.7176513671875,809.9450073242188,32.23904800415039,,False,
1783703875.25898,2026-07-10T10:17:55,13577,20260710_101749,,,,,,arming,,,,,,,,,False,0.023054994642734528,-0.0035026101395487785,0.9988683462142944,0.00017170552746392787,0.1977994590997696,-0.04736866429448128,-1.0,-1.0,67.0,31.0,0.031,0.0016165949637070298,-0.0002460547548253089,0.03205865994095802,0.013000315055251122,0.002676483243703842,0.0010926027316600084,-0.0007984488038346171,0.9081363677978516,-0.008224732242524624,0.032013725489377975,0.000916233635507524,2.829400727932807e-06,0.0001739684958010912,3.7055718898773193,10.0,0.0,7000.0,7000.0,7000.0,7000.0,32.766,32.766,0.275,32.766,2.838,2018.7176513671875,809.9450073242188,32.23904800415039,,False,
1783703875.2692146,2026-07-10T10:17:55,13590,20260710_101749,,,,,,arming,,,,,,,,,False,0.01917511224746704,0.002223680727183819,0.999061644077301,-0.1899118572473526,-0.2964138984680176,-0.4154675602912903,0.0,9.0,54.0,31.0,0.031,0.0016165949637070298,-0.0002460547548253089,0.03205865994095802,0.013000315055251122,0.002676483243703842,0.0010926027316600084,-0.0007984488038346171,0.9081363677978516,-0.008224732242524624,0.032103803008794785,0.0011085227597504854,4.837504093302414e-06,0.0002239484601886943,3.7055718898773193,10.0,0.0,7000.0,7000.0,7000.0,7000.0,0.269,32.766,0.276,32.766,32.766,2018.7176513671875,809.9450073242188,32.23904800415039,,False,
1783703875.279381,2026-07-10T10:17:55,13597,20260710_101749,,,,,,arming,,,,,,,,,False,0.02234254777431488,-0.002837720327079296,0.9996451139450073,0.4340725541114807,-0.11132549494504929,0.19049659371376038,0.0,-7.0,53.0,28.0,0.028,0.0009688269929029047,-0.0002692662528716028,0.03034275583922863,0.008819260634481907,0.002093617571517825,-0.008141037076711655,0.005682376213371754,0.9804039001464844,-0.008002575486898422,0.032103803008794785,0.0011085227597504854,4.837504093302414e-06,0.0002239484601886943,3.7055718898773193,10.0,0.0,7000.0,7000.0,7000.0,7000.0,0.269,32.766,0.276,32.766,32.766,2018.7176513671875,809.9450073242188,32.23904800415039,,False,
1783703875.289538,2026-07-10T10:17:55,13605,20260710_101749,,,,,,arming,,,,,,,,,False,0.01897721365094185,-0.00077615532791242,1.0005303621292114,0.1877368688583374,-0.08085363358259201,0.2105792611837387,0.0,1.0,57.0,28.0,0.028,0.0009688269929029047,-0.0002692662528716028,0.03034275583922863,0.008819260634481907,0.002093617571517825,-0.008141037076711655,0.005682376213371754,0.9804039001464844,-0.008002575486898422,0.032103803008794785,0.0011085227597504854,4.837504093302414e-06,0.0002239484601886943,3.7055718898773193,10.0,0.0,7000.0,7000.0,7000.0,7000.0,0.269,32.766,0.276,32.766,32.766,2018.7176513671875,809.9450073242188,32.23904800415039,,False,
1783703875.2996957,2026-07-10T10:17:55,13617,20260710_101749,,,,,,arming,,,,,,,,,False,0.02356971614062786,0.0011629287619143724,0.999822199344635,-0.18431055545806885,0.34127798676490784,0.35104459524154663,0.0,0.0,60.0,28.0,0.028,0.0007209918694570661,-0.0002573443634901196,0.030179833993315697,0.006817155051976442,0.0015935740666463971,-0.008199794217944145,0.0075400290079414845,1.0100609064102173,-0.008229231461882591,0.032103803008794785,0.0011085227597504854,4.837504093302414e-06,0.0002239484601886943,3.7055718898773193,10.0,0.0,7000.0,7000.0,7000.0,7000.0,0.269,32.766,0.276,32.766,32.766,2018.7176513671875,809.9450073242188,32.23904800415039,,False,
1783703875.309858,2026-07-10T10:17:55,13625,20260710_101749,,,,,,arming,,,,,,,,,False,0.018530655652284622,0.0017360991332679987,0.9987675547599792,0.36674806475639343,0.018584566190838814,0.32393279671669006,0.0,-2.0,66.0,28.0,0.028,0.0007209918694570661,-0.0002573443634901196,0.030179833993315697,0.006817155051976442,0.0015935740666463971,-0.008199794217944145,0.0075400290079414845,1.0100609064102173,-0.008229231461882591,0.032103803008794785,0.0011085227597504854,4.837504093302414e-06,0.0002239484601886943,3.7055718898773193,10.0,0.0,7000.0,7000.0,7000.0,7000.0,0.269,32.766,0.276,32.766,32.766,2018.7176513671875,809.9450073242188,32.23904800415039,,False,
1783703875.3200297,2026-07-10T10:17:55,13640,20260710_101749,,,,,,arming,,,,,,,,,False,0.017291704192757607,0.006134510040283203,1.001508116722107,-0.2919269800186157,-0.2705332338809967,-0.3218154311180115,2.0,2.0,72.0,32.0,0.032,0.0006464383914135396,-0.0008533753571100533,0.030809730291366577,0.0060906135477125645,-0.0019381629535928369,-0.004180422984063625,0.05833020061254501,1.029244065284729,-0.00990927405655384,0.030769113451242447,-0.0040522790513932705,2.7782821234723087e-06,0.0001706503826426342,3.7055718898773193,10.0,0.0,7000.0,7000.0,7000.0,7000.0,0.269,32.766,0.276,32.766,32.766,2018.7176513671875,809.9450073242188,32.23904800415039,,False,
1783703875.3302042,2026-07-10T10:17:55,13651,20260710_101749,,,,,,arming,,,,,,,,,False,0.02074803039431572,0.003829978173598647,0.9979777932167053,-0.28210777044296265,0.04462158679962158,-0.4139624536037445,0.0,0.0,63.0,32.0,0.032,0.0006464383914135396,-0.0008533753571100533,0.030809730291366577,0.0060906135477125645,-0.0019381629535928369,-0.004180422984063625,0.05833020061254501,1.029244065284729,-0.00990927405655384,0.030769113451242447,-0.0040522790513932705,2.7782821234723087e-06,0.0001706503826426342,3.7055718898773193,10.0,0.0,7000.0,7000.0,7000.0,7000.0,0.269,32.766,0.276,32.766,32.766,2018.7723388671875,809.939697265625,32.23196792602539,,False,
1783703875.3404078,2026-07-10T10:17:55,13661,20260710_101749,,,,,,arming,,,,,,,,,False,0.02578750066459179,0.0004189543833490461,1.0024330615997314,-0.14970698952674866,0.2159188687801361,0.022263001650571823,1.0,0.0,63.0,32.0,0.032,0.0006720299134030938,-0.0011640808079391718,0.030728721991181374,0.006188077386468649,-0.0030358200892806053,-0.003969134762883186,0.07770402729511261,1.0361425876617432,-0.009649114683270454,0.030769113451242447,-0.0040522790513932705,2.7782821234723087e-06,0.0001706503826426342,3.7055718898773193,10.0,0.0,7000.0,7000.0,7000.0,7000.0,0.269,32.766,0.276,32.766,32.766,2018.7723388671875,809.939697265625,32.23196792602539,,False,
1783703875.3506067,2026-07-10T10:17:55,13665,20260710_101749,,,,,,arming,,,,,,,,,False,0.02578750066459179,0.0004189543833490461,1.0024330615997314,-0.14970698952674866,0.2159188687801361,0.022263001650571823,0.0,0.0,61.0,32.0,0.032,0.0006720299134030938,-0.0011640808079391718,0.030728721991181374,0.006188077386468649,-0.0030358200892806053,-0.003969134762883186,0.07770402729511261,1.0361425876617432,-0.009649114683270454,0.030769113451242447,-0.0040522790513932705,2.7782821234723087e-06,0.0001706503826426342,3.7055718898773193,10.0,0.0,7000.0,7000.0,7000.0,7000.0,0.269,32.766,0.276,32.766,32.766,2018.7723388671875,809.939697265625,32.23196792602539,,False,
1783703875.361147,2026-07-10T10:17:55,13681,20260710_101749,,,,,,arming,,,,,,,,,False,0.028153935447335243,0.0040978374890983105,0.9997904300689697,-0.19563549757003784,0.27527138590812683,0.2785665988922119,-7.0,-1.0,66.0,32.0,0.032,0.0010154956253245473,0.0010485589737072587,0.030659997835755348,0.008303515613079071,0.010157682932913303,-0.003900828305631876,-0.08251643925905228,1.0193639993667603,-0.0055113742128014565,0.030769113451242447,-0.0040522790513932705,2.7782821234723087e-06,0.0001706503826426342,3.7055718898773193,10.0,0.0,7000.0,7000.0,7000.0,7000.0,0.269,32.766,0.276,32.766,32.766,2018.7723388671875,809.939697265625,32.23196792602539,,False,
1783703875.371597,2026-07-10T10:17:55,13691,20260710_101749,,,,,,arming,,,,,,,,,False,0.015768615528941154,-0.0034430227242410183,0.9984058141708374,0.4491496980190277,0.37041616439819336,-0.05919557064771652,6.0,2.0,47.0,32.0,0.032,0.0010154956253245473,0.0010485589737072587,0.030659997835755348,0.008303515613079071,0.010157682932913303,-0.003900828305631876,-0.08251643925905228,1.0193639993667603,-0.0055113742128014565,0.030620822682976723,-0.003476587822660804,4.729218289867276e-06,0.00022063970391172916,3.7055718898773193,10.0,0.0,7000.0,7000.0,7000.0,7000.0,32.766,32.766,0.279,32.766,2.857,2018.7723388671875,809.939697265625,32.23196792602539,,False,
1783703875.3818717,2026-07-10T10:17:55,13701,20260710_101749,,,,,,arming,,,,,,,,,False,0.023428454995155334,0.006910222582519054,1.000654935836792,-0.021754715591669083,-0.050137802958488464,-0.08980552107095718,-6.0,0.0,50.0,28.0,0.028,0.0003418133710511029,0.0009571292321197689,0.029496802017092705,0.004594753030687571,0.009505550377070904,-0.009263123385608196,-0.06617517024278641,1.0705610513687134,-0.005459685809910297,0.030620822682976723,-0.003476587822660804,4.729218289867276e-06,0.00022063970391172916,3.7055718898773193,10.0,0.0,7000.0,7000.0,7000.0,7000.0,32.766,32.766,0.279,32.766,2.857,2018.7723388671875,809.939697265625,32.23196792602539,,False,
