pc_time_s,pc_time_iso,cf_time_ms,session_id,motif_id,motif_type,motif_phase,rep_index,motif_param_json,flight_phase,cmd_vx_m_s,cmd_vy_m_s,cmd_yaw_rate_deg_s,cmd_height_m,cmd_vx_raw_m_s,cmd_vy_raw_m_s,cmd_yaw_rate_raw_deg_s,cmd_height_raw_m,safety_override_active,acc_x_g,acc_y_g,acc_z_g,gyro_x_dps,gyro_y_dps,gyro_z_dps,flow_delta_x_px,flow_delta_y_px,flow_squal,zrange_mm,zrange_m,x_m,y_m,z_m,vx_m_s,vy_m_s,vz_m_s,roll_deg,pitch_deg,yaw_deg,kalman_state_z_m,kalman_state_pz,kalman_var_z,kalman_var_pz,battery_v,battery_level_pct,pm_state,motor_m1,motor_m2,motor_m3,motor_m4,range_front_m,range_back_m,range_left_m,range_right_m,range_up_m,baro_asl_m,baro_pressure_hpa,baro_temp_c,safety_flag,should_land,event
1783704303.4227514,2026-07-10T10:25:03,,20260710_102458,,,,,,ground_idle,,,,,,,,,False,,,,,,,,,,,,,,,,,,,,,,,,,,,,,,,,,,,,,,,,,False,
1783704303.433141,2026-07-10T10:25:03,12984,20260710_102458,,,,,,ground_idle,,,,,,,,,False,0.004288190510123968,-0.001439319341443479,1.0003095865249634,-0.1026703268289566,0.11432741582393646,-0.15571163594722748,,,,,,,,,,,,,,,,,,,,,,,,,,,,,,,,,,,False,
1783704303.44327,2026-07-10T10:25:03,12994,20260710_102458,,,,,,ground_idle,,,,,,,,,False,0.002247186377644539,0.0016729682683944702,1.0011796951293945,0.17784744501113892,0.07324586808681488,-0.023652151226997375,3.0,-2.0,51.0,31.0,0.031,,,,,,,,,,,,,,,,,,,,,,,,,,,,,,False,
1783704303.4533846,2026-07-10T10:25:03,13004,20260710_102458,,,,,,ground_idle,,,,,,,,,False,0.0039077820256352425,0.001195679884403944,1.0005887746810913,-0.05050495266914368,-0.27774691581726074,0.0012803003191947937,0.0,-2.0,48.0,31.0,0.031,-0.0005404102266766131,-0.0002450443571433425,0.02979770302772522,0.002448099432513118,-0.0038981549441814423,0.00883971806615591,0.031965356320142746,0.21653662621974945,0.1028263047337532,,,,,,,,,,,,,,,,,,,,,False,
1783704303.463502,2026-07-10T10:25:03,13014,20260710_102458,,,,,,ground_idle,,,,,,,,,False,0.0033824474085122347,0.0002023391134571284,1.0005825757980347,0.43864038586616516,-0.40374577045440674,0.0896894708275795,-3.0,4.0,63.0,31.0,0.031,-0.0005404102266766131,-0.0002450443571433425,0.02979770302772522,0.002448099432513118,-0.0038981549441814423,0.00883971806615591,0.031965356320142746,0.21653662621974945,0.1028263047337532,,,,,,,,,,,,,,,,,,,,,False,
1783704303.4736176,2026-07-10T10:25:03,13024,20260710_102458,,,,,,ground_idle,,,,,,,,,False,0.00457774056121707,-0.0008780393400229514,1.000359058380127,-0.1631174236536026,-0.20415814220905304,0.12413546442985535,0.0,0.0,61.0,31.0,0.031,-0.0015163023490458727,0.0004649239417631179,0.02998368814587593,-0.002705172635614872,0.00010073815792566165,0.008969730697572231,0.0049681756645441055,0.258085161447525,0.10258574783802032,,,,,,,,,,,,,,,,,,,,,False,
1783704303.48376,2026-07-10T10:25:03,13034,20260710_102458,,,,,,ground_idle,,,,,,,,,False,0.00595103669911623,0.0011684689670801163,0.9996124505996704,-0.009427651762962341,0.029527444392442703,-0.08822200447320938,0.0,0.0,60.0,31.0,0.031,-0.0015163023490458727,0.0004649239417631179,0.02998368814587593,-0.002705172635614872,0.00010073815792566165,0.008969730697572231,0.0049681756645441055,0.258085161447525,0.10258574783802032,0.030073678120970726,0.009040914475917816,4.097321834706236e-06,0.00020856433548033237,3.7319648265838623,10.0,0.0,0.0,0.0,0.0,0.0,0.231,32.766,1.322,0.269,2.835,,,,,False,
1783704303.4939313,2026-07-10T10:25:03,13044,20260710_102458,,,,,,ground_idle,,,,,,,,,False,0.0053487117402255535,0.003549607703462243,1.0008881092071533,-0.15055488049983978,-0.11567370593547821,0.2009078711271286,0.0,0.0,46.0,31.0,0.031,-0.0015722076641395688,0.0004651052877306938,0.030549565330147743,-0.0026676745619624853,3.0356070055859163e-05,0.010926194489002228,0.005898516159504652,0.25969788432121277,0.10220295935869217,0.030073678120970726,0.009040914475917816,4.097321834706236e-06,0.00020856433548033237,3.7319648265838623,10.0,0.0,0.0,0.0,0.0,0.0,0.231,32.766,1.322,0.269,2.835,,,,,False,
1783704303.5041287,2026-07-10T10:25:03,13054,20260710_102458,,,,,,ground_idle,,,,,,,,,False,0.004472062923014164,0.0027328655123710632,0.9989960193634033,0.07297063618898392,-0.17245200276374817,-0.19055210053920746,0.0,0.0,51.0,31.0,0.031,-0.0015722076641395688,0.0004651052877306938,0.030549565330147743,-0.0026676745619624853,3.0356070055859163e-05,0.010926194489002228,0.005898516159504652,0.25969788432121277,0.10220295935869217,0.030073678120970726,0.009040914475917816,4.097321834706236e-06,0.00020856433548033237,3.7319648265838623,10.0,0.0,0.0,0.0,0.0,0.0,0.231,32.766,1.322,0.269,2.835,,,,,False,
1783704303.514325,2026-07-10T10:25:03,13064,20260710_102458,,,,,,ground_idle,,,,,,,,,False,0.007962425239384174,0.0013209159951657057,0.9982215762138367,0.025782134383916855,-0.43119484186172485,-0.17648017406463623,0.0,0.0,64.0,31.0,0.031,-0.0016239738324657083,0.00047133362386375666,0.030769115313887596,-0.002570441924035549,0.0006084602209739387,0.010984642431139946,0.00547106983140111,0.25933757424354553,0.10284373909235,0.030073678120970726,0.009040914475917816,4.097321834706236e-06,0.00020856433548033237,3.7319648265838623,10.0,0.0,0.0,0.0,0.0,0.0,0.231,32.766,1.322,0.269,2.835,,,,,False,
1783704303.5244963,2026-07-10T10:25:03,13074,20260710_102458,,,,,,ground_idle,,,,,,,,,False,0.00526292622089386,-0.001875117071904242,0.9985167384147644,-0.15806782245635986,-0.0949249118566513,0.008510755375027657,-5.0,-5.0,56.0,31.0,0.031,-0.0016239738324657083,0.00047133362386375666,0.030769115313887596,-0.002570441924035549,0.0006084602209739387,0.010984642431139946,0.00547106983140111,0.25933757424354553,0.10284373909235,0.030073678120970726,0.009040914475917816,4.097321834706236e-06,0.00020856433548033237,3.7319648265838623,10.0,0.0,0.0,0.0,0.0,0.0,0.231,32.766,1.322,0.269,2.835,,,,,False,
1783704303.5346963,2026-07-10T10:25:03,13084,20260710_102458,,,,,,ground_idle,,,,,,,,,False,0.004774849861860275,-0.00044991151662543416,0.9968817830085754,-0.16859015822410583,-0.2719915509223938,0.12927480041980743,5.0,5.0,67.0,31.0,0.031,-0.0016140567604452372,0.00047768140211701393,0.031022517010569572,-0.0021410901099443436,0.00043107301462441683,0.010836035013198853,0.007951176725327969,0.26472631096839905,0.10179506242275238,0.031022517010569572,0.010845770128071308,4.22782886744244e-06,0.00021373163326643407,3.737243413925171,10.0,0.0,0.0,0.0,0.0,0.0,0.229,32.766,1.304,0.269,2.831,2018.7723388671875,809.9400024414062,28.964223861694336,,False,
1783704303.544922,2026-07-10T10:25:03,13097,20260710_102458,,,,,,ground_idle,,,,,,,,,False,0.004217733163386583,0.0009798315586522222,0.9995022416114807,-0.33021309971809387,0.2462615817785263,-0.00746249919757247,0.0,0.0,49.0,27.0,0.027,-0.0016140567604452372,0.00047768140211701393,0.031022517010569572,-0.0021410901099443436,0.00043107301462441683,0.010836035013198853,0.007951176725327969,0.26472631096839905,0.10179506242275238,0.031022517010569572,0.010845770128071308,4.22782886744244e-06,0.00021373163326643407,3.737243413925171,10.0,0.0,0.0,0.0,0.0,0.0,0.229,32.766,1.304,0.269,2.831,2018.7723388671875,809.9400024414062,28.964223861694336,,False,
1783704303.5550847,2026-07-10T10:25:03,13107,20260710_102458,,,,,,ground_idle,,,,,,,,,False,0.0032824636436998844,0.001967289252206683,1.0017861127853394,0.047064486891031265,-0.031584370881319046,-0.172270268201828,-3.0,-1.0,50.0,27.0,0.027,-0.0007207764429040253,-0.00011800124048022553,0.02937467209994793,0.002318532904610038,-0.0025740554556250572,0.0012477763229981065,0.028434915468096733,0.2304767668247223,0.10160310566425323,0.031022517010569572,0.010845770128071308,4.22782886744244e-06,0.00021373163326643407,3.737243413925171,10.0,0.0,0.0,0.0,0.0,0.0,0.229,32.766,1.304,0.269,2.831,2018.7723388671875,809.9400024414062,28.964223861694336,,False,
1783704303.5652354,2026-07-10T10:25:03,13114,20260710_102458,,,,,,ground_idle,,,,,,,,,False,0.00620233453810215,-0.0014226229395717382,1.00103759765625,-0.24468295276165009,-0.1634402573108673,0.2593171000480652,-3.0,-1.0,50.0,27.0,0.027,-0.0007207764429040253,-0.00011800124048022553,0.02937467209994793,0.002318532904610038,-0.0025740554556250572,0.0012477763229981065,0.028434915468096733,0.2304767668247223,0.10160310566425323,0.031022517010569572,0.010845770128071308,4.22782886744244e-06,0.00021373163326643407,3.737243413925171,10.0,0.0,0.0,0.0,0.0,0.0,0.229,32.766,1.304,0.269,2.831,2018.7723388671875,809.9400024414062,28.964223861694336,,False,
1783704303.5753908,2026-07-10T10:25:03,13127,20260710_102458,,,,,,ground_idle,,,,,,,,,False,0.005434750579297543,-0.0009743549162521958,1.0024006366729736,-0.053680479526519775,0.008344748988747597,0.13193930685520172,0.0,0.0,56.0,27.0,0.027,-0.0013230507029220462,0.0007732553640380502,0.02940833941102028,-0.0008587022311985493,0.0019532002042979,0.0014742696657776833,-0.004034250043332577,0.2538178563117981,0.10047133266925812,0.031022517010569572,0.010845770128071308,4.22782886744244e-06,0.00021373163326643407,3.737243413925171,10.0,0.0,0.0,0.0,0.0,0.0,0.229,32.766,1.304,0.269,2.831,2018.7723388671875,809.9400024414062,28.964223861694336,,False,
1783704303.5855713,2026-07-10T10:25:03,13134,20260710_102458,,,,,,ground_idle,,,,,,,,,False,0.0026808574330061674,2.9742815968347713e-05,1.0018231868743896,0.21385394036769867,0.04823531210422516,-0.2319709062576294,0.0,0.0,56.0,27.0,0.027,-0.0013230507029220462,0.0007732553640380502,0.02940833941102028,-0.0008587022311985493,0.0019532002042979,0.0014742696657776833,-0.004034250043332577,0.2538178563117981,0.10047133266925812,0.02942427434027195,0.0017166296020150185,4.09727272199234e-06,0.0002085628657368943,3.7319648265838623,10.0,0.0,0.0,0.0,0.0,0.0,0.229,32.766,1.304,0.267,2.831,2018.7723388671875,809.9400024414062,28.964223861694336,,False,
1783704303.5957317,2026-07-10T10:25:03,13147,20260710_102458,,,,,,ground_idle,,,,,,,,,False,0.003213311079889536,0.0007270042551681399,1.0023207664489746,-0.04827863350510597,-0.042583927512168884,-0.02485828660428524,7.0,1.0,57.0,28.0,0.028,-0.0001384949719067663,0.0019737775437533855,0.028848638758063316,0.0050666737370193005,0.0075184935703873634,-0.0010946899419650435,-0.04868239536881447,0.2124081701040268,0.10104811936616898,0.02942427434027195,0.0017166296020150185,4.09727272199234e-06,0.0002085628657368943,3.7319648265838623,10.0,0.0,0.0,0.0,0.0,0.0,0.229,32.766,1.304,0.267,2.831,2018.7723388671875,809.9400024414062,28.964223861694336,,False,
1783704303.6058946,2026-07-10T10:25:03,13154,20260710_102458,,,,,,ground_idle,,,,,,,,,False,0.003987503238022327,0.0014767617685720325,1.0015051364898682,0.13955162465572357,0.35106509923934937,-0.14093509316444397,7.0,1.0,57.0,28.0,0.028,-0.0001384949719067663,0.0019737775437533855,0.028848638758063316,0.0050666737370193005,0.0075184935703873634,-0.0010946899419650435,-0.04868239536881447,0.2124081701040268,0.10104811936616898,0.02942427434027195,0.0017166296020150185,4.09727272199234e-06,0.0002085628657368943,3.7319648265838623,10.0,0.0,0.0,0.0,0.0,0.0,0.229,32.766,1.304,0.267,2.831,2018.7723388671875,809.9400024414062,28.964223861694336,,False,
1783704303.6160977,2026-07-10T10:25:03,13167,20260710_102458,,,,,,ground_idle,,,,,,,,,False,0.004377587698400021,0.0013676706003025174,1.001269817352295,0.26386091113090515,-0.2404375821352005,-0.03286302834749222,-3.0,4.0,54.0,28.0,0.028,-0.0004537876520771533,-0.00038163020508363843,0.028850935399532318,0.0029827551916241646,-0.003956280183047056,-0.0005615400150418282,0.04114647954702377,0.22630161046981812,0.10133662819862366,0.02942427434027195,0.0017166296020150185,4.09727272199234e-06,0.0002085628657368943,3.7319648265838623,10.0,0.0,0.0,0.0,0.0,0.0,0.229,32.766,1.304,0.267,2.831,2018.7723388671875,809.9400024414062,28.964223861694336,,False,
1783704303.626266,2026-07-10T10:25:03,13177,20260710_102458,,,,,,ground_idle,,,,,,,,,False,0.0053886305540800095,0.001895594410598278,0.9999010562896729,-0.012380633503198624,-0.007810933515429497,0.31775397062301636,0.0,0.0,71.0,28.0,0.028,-0.0004537876520771533,-0.00038163020508363843,0.028850935399532318,0.0029827551916241646,-0.003956280183047056,-0.0005615400150418282,0.04114647954702377,0.22630161046981812,0.10133662819862366,0.02942427434027195,0.0017166296020150185,4.09727272199234e-06,0.0002085628657368943,3.7319648265838623,10.0,0.0,0.0,0.0,0.0,0.0,0.229,32.766,1.304,0.267,2.831,2018.7723388671875,809.9400024414062,28.964223861694336,,False,
1783704303.636429,2026-07-10T10:25:03,13187,20260710_102458,,,,,,ground_idle,,,,,,,,,False,0.0037268814630806446,2.001884968194645e-05,0.9975858926773071,0.05453686788678169,-0.4864268898963928,-0.062323231250047684,-1.0,-5.0,48.0,28.0,0.028,-0.0016249805921688676,0.00047477101907134056,0.028851917013525963,-0.002658525248989463,0.0005406614509411156,-0.0003291883913334459,0.010288280434906483,0.2687353789806366,0.10225924104452133,0.028851917013525963,-0.00031681853579357266,4.227798854117282e-06,0.00021373092022258788,3.737243413925171,10.0,0.0,0.0,0.0,0.0,0.0,0.23,32.766,1.3,0.267,2.841,2018.6793212890625,809.9482421875,28.97687339782715,,False,
1783704303.6466143,2026-07-10T10:25:03,13197,20260710_102458,,,,,,ground_idle,,,,,,,,,False,0.003984400071203709,-0.0008312640711665154,0.9998351335525513,0.08509687334299088,0.16238164901733398,0.12021227926015854,3.0,1.0,44.0,27.0,0.027,-0.0016249805921688676,0.00047477101907134056,0.028851917013525963,-0.002658525248989463,0.0005406614509411156,-0.0003291883913334459,0.010288280434906483,0.2687353789806366,0.10225924104452133,0.028851917013525963,-0.00031681853579357266,4.227798854117282e-06,0.00021373092022258788,3.737243413925171,10.0,0.0,0.0,0.0,0.0,0.0,0.23,32.766,1.3,0.267,2.841,2018.6793212890625,809.9482421875,28.97687339782715,,False,
1783704303.656857,2026-07-10T10:25:03,13207,20260710_102458,,,,,,ground_idle,,,,,,,,,False,0.005567243322730064,0.00013240776024758816,1.000658631324768,-0.08654442429542542,-0.04879020154476166,0.08674781769514084,-2.0,3.0,51.0,27.0,0.027,-0.00046312905033119023,-0.00010095463949255645,0.028017248958349228,0.0028546666726469994,-0.002315623452886939,-0.0047136531211435795,0.032077379524707794,0.23174680769443512,0.10206975042819977,0.028851917013525963,-0.00031681853579357266,4.227798854117282e-06,0.00021373092022258788,3.737243413925171,10.0,0.0,0.0,0.0,0.0,0.0,0.23,32.766,1.3,0.267,2.841,2018.6793212890625,809.9482421875,28.97687339782715,,False,
1783704303.6670008,2026-07-10T10:25:03,13217,20260710_102458,,,,,,ground_idle,,,,,,,,,False,0.003487398847937584,-0.00012423572479747236,1.0010112524032593,-0.10603316128253937,-0.17475764453411102,0.16698211431503296,0.0,0.0,56.0,27.0,0.027,-0.00046312905033119023,-0.00010095463949255645,0.028017248958349228,0.0028546666726469994,-0.002315623452886939,-0.0047136531211435795,0.032077379524707794,0.23174680769443512,0.10206975042819977,0.028851917013525963,-0.00031681853579357266,4.227798854117282e-06,0.00021373092022258788,3.737243413925171,10.0,0.0,0.0,0.0,0.0,0.0,0.23,32.766,1.3,0.267,2.841,2018.6793212890625,809.9482421875,28.97687339782715,,False,
1783704303.6771505,2026-07-10T10:25:03,13227,20260710_102458,,,,,,ground_idle,,,,,,,,,False,0.005207374691963196,0.0005647107609547675,1.0024534463882446,-0.02567208744585514,-0.25858139991760254,-0.05740691348910332,0.0,0.0,55.0,27.0,0.027,-0.001335305511020124,0.0004725747276097536,0.027927836403250694,-0.001357342000119388,0.0004407334781717509,-0.004611838608980179,0.00881457980722189,0.26430177688598633,0.10327611863613129,0.028851917013525963,-0.00031681853579357266,4.227798854117282e-06,0.00021373092022258788,3.737243413925171,10.0,0.0,0.0,0.0,0.0,0.0,0.23,32.766,1.3,0.267,2.841,2018.6793212890625,809.9482421875,28.97687339782715,,False,
1783704303.687328,2026-07-10T10:25:03,13239,20260710_102458,,,,,,ground_idle,,,,,,,,,False,0.008043408393859863,-0.00012424269516486675,0.9995012879371643,-0.05427757278084755,-0.3064151704311371,0.007273992523550987,2.0,-1.0,51.0,27.0,0.027,-0.001042069518007338,-0.00012970171519555151,0.027471885085105896,0.0003809173358604312,-0.00241203885525465,-0.006201624870300293,0.00881457980722189,0.26430177688598633,0.10327611863613129,0.0278825294226408,-0.0044427369721233845,4.097260898561217e-06,0.00020856283663306385,3.7319648265838623,10.0,0.0,0.0,0.0,0.0,0.0,0.23,32.766,1.3,32.766,2.841,2018.6793212890625,809.9482421875,28.97687339782715,,False,
1783704303.6974864,2026-07-10T10:25:03,13247,20260710_102458,,,,,,ground_idle,,,,,,,,,False,0.004738364368677139,-0.0004533705650828779,1.0002328157424927,-0.0718044638633728,-0.3270367681980133,0.0077779474668204784,-1.0,1.0,62.0,27.0,0.027,-0.001042069518007338,-0.00012970171519555151,0.027471885085105896,0.0003809173358604312,-0.00241203885525465,-0.006201624870300293,0.03134520351886749,0.25723060965538025,0.10312334448099136,0.0278825294226408,-0.0044427369721233845,4.097260898561217e-06,0.00020856283663306385,3.7319648265838623,10.0,0.0,0.0,0.0,0.0,0.0,0.23,32.766,1.3,32.766,2.841,2018.6793212890625,809.9482421875,28.97687339782715,,False,
1783704303.7077367,2026-07-10T10:25:03,13259,20260710_102458,,,,,,ground_idle,,,,,,,,,False,0.004111299756914377,-0.0017438615905120969,0.9993605017662048,-0.0008631248492747545,0.2475607693195343,0.01529091876000166,-1.0,1.0,54.0,27.0,0.027,-0.0016287507023662329,0.0004734708636533469,0.027347611263394356,-0.002217264845967293,0.00034804875031113625,-0.006244083866477013,0.03134520351886749,0.25723060965538025,0.10312334448099136,0.0278825294226408,-0.0044427369721233845,4.097260898561217e-06,0.00020856283663306385,3.7319648265838623,10.0,0.0,0.0,0.0,0.0,0.0,0.23,32.766,1.3,32.766,2.841,2018.6793212890625,809.9482421875,28.97687339782715,,False,
1783704303.7179039,2026-07-10T10:25:03,13267,20260710_102458,,,,,,ground_idle,,,,,,,,,False,0.005158235784620047,-0.0011782424990087748,1.0004150867462158,-0.1960521936416626,0.1105416938662529,-0.08282265067100525,-5.0,-3.0,55.0,27.0,0.027,-0.0016287507023662329,0.0004734708636533469,0.027347611263394356,-0.002217264845967293,0.00034804875031113625,-0.006244083866477013,0.006750671658664942,0.28290966153144836,0.10215552896261215,0.0278825294226408,-0.0044427369721233845,4.097260898561217e-06,0.00020856283663306385,3.7319648265838623,10.0,0.0,0.0,0.0,0.0,0.0,0.23,32.766,1.3,32.766,2.841,2018.6793212890625,809.9482421875,28.97687339782715,,False,
1783704303.7280524,2026-07-10T10:25:03,13279,20260710_102458,,,,,,ground_idle,,,,,,,,,False,0.0040518431924283504,0.0023309208918362856,1.0003262758255005,0.4380646347999573,0.18292202055454254,0.0985545963048935,4.0,3.0,63.0,27.0,0.027,-0.0016027175588533282,0.0007499013445340097,0.027241773903369904,-0.002058881102129817,0.001312706503085792,-0.006109284702688456,0.006750671658664942,0.28290966153144836,0.10215552896261215,0.0278825294226408,-0.0044427369721233845,4.097260898561217e-06,0.00020856283663306385,3.7319648265838623,10.0,0.0,0.0,0.0,0.0,0.0,0.23,32.766,1.3,32.766,2.841,2018.6793212890625,809.9482421875,28.97687339782715,,False,
1783704303.7381973,2026-07-10T10:25:03,13287,20260710_102458,,,,,,ground_idle,,,,,,,,,False,0.00363774411380291,0.00129604316316545,0.9987738728523254,0.15340356528759003,0.12592720985412598,0.15050317347049713,0.0,-3.0,50.0,27.0,0.027,-0.0016027175588533282,0.0007499013445340097,0.027241773903369904,-0.002058881102129817,0.001312706503085792,-0.006109284702688456,0.0007800679304637015,0.2795018255710602,0.1007809266448021,0.027241773903369904,-0.006099209655076265,4.227803401590791e-06,0.00021373198251239955,3.737243413925171,10.0,0.0,0.0,0.0,0.0,0.0,0.228,32.766,1.324,32.766,2.836,2018.575439453125,809.9573364257812,28.98776626586914,,False,
1783704303.7483504,2026-07-10T10:25:03,13300,20260710_102458,,,,,,ground_idle,,,,,,,,,False,0.005042294505983591,-0.0001429269468644634,1.0003883838653564,-0.05503162369132042,0.15884265303611755,0.08961601555347443,3.0,0.0,49.0,28.0,0.028,-0.0007619079551659524,-7.800810999469832e-05,0.027492113411426544,0.001882303273305297,-0.0025183323305100203,-0.004339984618127346,0.03284198045730591,0.24683429300785065,0.10256627202033997,0.027241773903369904,-0.006099209655076265,4.227803401590791e-06,0.00021373198251239955,3.737243413925171,10.0,0.0,0.0,0.0,0.0,0.0,0.228,32.766,1.324,32.766,2.836,2018.575439453125,809.9573364257812,28.98776626586914,,False,
1783704303.758496,2026-07-10T10:25:03,13307,20260710_102458,,,,,,ground_idle,,,,,,,,,False,0.004395885858684778,0.003779401071369648,1.0011041164398193,-0.15087977051734924,-0.0854467898607254,-0.23998337984085083,-2.0,2.0,56.0,28.0,0.028,-0.0007619079551659524,-7.800810999469832e-05,0.027492113411426544,0.001882303273305297,-0.0025183323305100203,-0.004339984618127346,0.03284198045730591,0.24683429300785065,0.10256627202033997,0.027241773903369904,-0.006099209655076265,4.227803401590791e-06,0.00021373198251239955,3.737243413925171,10.0,0.0,0.0,0.0,0.0,0.0,0.228,32.766,1.324,32.766,2.836,2018.575439453125,809.9573364257812,28.98776626586914,,False,
1783704303.7690022,2026-07-10T10:25:03,13320,20260710_102458,,,,,,ground_idle,,,,,,,,,False,0.004845737013965845,0.0020134132355451584,1.0011157989501953,-0.019864926114678383,0.15808561444282532,0.119537353515625,2.0,-2.0,60.0,28.0,0.028,-0.0007718579727225006,-5.6309909268748015e-05,0.027411790564656258,0.001793237985111773,-0.0019369689980521798,-0.004107289481908083,0.028242077678442,0.24776123464107513,0.10293373465538025,0.027241773903369904,-0.006099209655076265,4.227803401590791e-06,0.00021373198251239955,3.737243413925171,10.0,0.0,0.0,0.0,0.0,0.0,0.228,32.766,1.324,32.766,2.836,2018.575439453125,809.9573364257812,28.98776626586914,,False,
1783704303.7792022,2026-07-10T10:25:03,13331,20260710_102458,,,,,,ground_idle,,,,,,,,,False,0.0037684838753193617,0.0011231829412281513,1.0014708042144775,0.29695776104927063,-0.03760753199458122,-0.024482401087880135,-1.0,2.0,54.0,28.0,0.028,-0.0007718579727225006,-5.6309909268748015e-05,0.027411790564656258,0.001793237985111773,-0.0019369689980521798,-0.004107289481908083,0.028242077678442,0.24776123464107513,0.10293373465538025,0.027373790740966797,-0.0039312769658863544,4.097273176739691e-06,0.00020856340415775776,3.737243413925171,10.0,0.0,0.0,0.0,0.0,0.0,0.228,32.766,1.324,32.766,2.836,2018.575439453125,809.9573364257812,28.98776626586914,,False,
1783704303.7893822,2026-07-10T10:25:03,13340,20260710_102458,,,,,,ground_idle,,,,,,,,,False,0.002868932904675603,-0.00043856719275936484,1.0010931491851807,-0.1393134891986847,0.008035731501877308,0.07236821204423904,2.0,-2.0,49.0,24.0,0.024,-0.0007750963559374213,-0.0003086503129452467,0.025930754840373993,0.001607427024282515,-0.0029145388398319483,-0.010781504213809967,0.03782602772116661,0.24836722016334534,0.1042918711900711,0.027373790740966797,-0.0039312769658863544,4.097273176739691e-06,0.00020856340415775776,3.7319648265838623,10.0,0.0,0.0,0.0,0.0,0.0,0.228,32.766,1.324,0.27,2.836,2018.575439453125,809.9573364257812,28.98776626586914,,False,
1783704303.7995725,2026-07-10T10:25:03,13347,20260710_102458,,,,,,ground_idle,,,,,,,,,False,0.003497069701552391,-0.0003020112926606089,1.0011390447616577,0.11155495792627335,0.17829105257987976,-0.11694598942995071,0.0,1.0,58.0,24.0,0.024,-0.0007750963559374213,-0.0003086503129452467,0.025930754840373993,0.001607427024282515,-0.0029145388398319483,-0.010781504213809967,0.03782602772116661,0.24836722016334534,0.1042918711900711,0.027373790740966797,-0.0039312769658863544,4.097273176739691e-06,0.00020856340415775776,3.7319648265838623,10.0,0.0,0.0,0.0,0.0,0.0,0.228,32.766,1.324,0.27,2.836,2018.575439453125,809.9573364257812,28.98776626586914,,False,
1783704303.809763,2026-07-10T10:25:03,13360,20260710_102458,,,,,,ground_idle,,,,,,,,,False,0.004266802687197924,0.002422419609501958,1.001563310623169,-0.0023033656179904938,0.11116479337215424,0.008734673261642456,-3.0,1.0,59.0,24.0,0.024,-0.0012792106717824936,0.00045596048585139215,0.025720834732055664,-0.0010270914062857628,0.0009637205512262881,-0.01054445095360279,0.009335346519947052,0.2647344172000885,0.10394006222486496,0.027373790740966797,-0.0039312769658863544,4.097273176739691e-06,0.00020856340415775776,3.7319648265838623,10.0,0.0,0.0,0.0,0.0,0.0,0.228,32.766,1.324,0.27,2.836,2018.575439453125,809.9573364257812,28.98776626586914,,False,
1783704303.8199162,2026-07-10T10:25:03,13367,20260710_102458,,,,,,ground_idle,,,,,,,,,False,0.0030730285216122866,0.0010826223297044635,1.0000784397125244,0.2193344384431839,0.31372514367103577,-0.2397053837776184,0.0,0.0,53.0,24.0,0.024,-0.0012792106717824936,0.00045596048585139215,0.025720834732055664,-0.0010270914062857628,0.0009637205512262881,-0.01054445095360279,0.009335346519947052,0.2647344172000885,0.10394006222486496,0.027373790740966797,-0.0039312769658863544,4.097273176739691e-06,0.00020856340415775776,3.7319648265838623,10.0,0.0,0.0,0.0,0.0,0.0,0.228,32.766,1.324,0.27,2.836,2018.575439453125,809.9573364257812,28.98776626586914,,False,
1783704303.8300734,2026-07-10T10:25:03,13381,20260710_102458,,,,,,ground_idle,,,,,,,,,False,0.003655725857242942,-0.001114574959501624,0.9993482232093811,0.03933332860469818,-0.03304257243871689,0.08671808987855911,1.0,1.0,66.0,24.0,0.024,-0.0015517655992880464,0.00020082246919628233,0.025511329993605614,-0.0024984620977193117,-0.000328501540934667,-0.01047399640083313,0.020345937460660934,0.27314886450767517,0.10510098189115524,0.025511329993605614,-0.010461869649589062,4.2278338696633e-06,0.0002137328265234828,3.7319648265838623,10.0,0.0,0.0,0.0,0.0,0.0,0.228,32.766,1.324,0.27,2.836,2018.575439453125,809.9573364257812,28.98776626586914,,False,
1783704303.840273,2026-07-10T10:25:03,13387,20260710_102458,,,,,,ground_idle,,,,,,,,,False,0.0052344342693686485,0.001187267480418086,1.0004795789718628,-0.1785423755645752,0.13926777243614197,-0.1122051477432251,-1.0,0.0,45.0,24.0,0.024,-0.0015517655992880464,0.00020082246919628233,0.025511329993605614,-0.0024984620977193117,-0.000328501540934667,-0.01047399640083313,0.020345937460660934,0.27314886450767517,0.10510098189115524,0.025511329993605614,-0.010461869649589062,4.2278338696633e-06,0.0002137328265234828,3.737243413925171,10.0,0.0,0.0,0.0,0.0,0.0,0.228,32.766,1.285,0.27,2.829,2018.5809326171875,809.9569091796875,28.999170303344727,,False,
1783704303.8504393,2026-07-10T10:25:03,13400,20260710_102458,,,,,,ground_idle,,,,,,,,,False,0.005482019390910864,0.002535475417971611,1.0009596347808838,0.32939767837524414,-0.09595171362161636,0.09690800309181213,0.0,0.0,49.0,28.0,0.028,-0.0015701880911365151,0.0004741803277283907,0.026472391560673714,-0.0023008473217487335,0.0011460328241810203,-0.0045798830687999725,0.009568490087985992,0.2725728154182434,0.10447382926940918,0.025511329993605614,-0.010461869649589062,4.2278338696633e-06,0.0002137328265234828,3.737243413925171,10.0,0.0,0.0,0.0,0.0,0.0,0.228,32.766,1.285,0.27,2.829,2018.5809326171875,809.9569091796875,28.999170303344727,,False,
1783704303.8606274,2026-07-10T10:25:03,13407,20260710_102458,,,,,,ground_idle,,,,,,,,,False,0.005456035491079092,0.0019265059381723404,0.9996656775474548,-0.19734373688697815,-0.48273566365242004,0.00830906443297863,0.0,0.0,54.0,28.0,0.028,-0.0015701880911365151,0.0004741803277283907,0.026472391560673714,-0.0023008473217487335,0.0011460328241810203,-0.0045798830687999725,0.009568490087985992,0.2725728154182434,0.10447382926940918,0.025511329993605614,-0.010461869649589062,4.2278338696633e-06,0.0002137328265234828,3.737243413925171,10.0,0.0,0.0,0.0,0.0,0.0,0.228,32.766,1.285,0.27,2.829,2018.5809326171875,809.9569091796875,28.999170303344727,,False,
1783704303.870783,2026-07-10T10:25:03,13420,20260710_102458,,,,,,ground_idle,,,,,,,,,False,0.003958133514970541,-0.0007038885960355401,0.9999179840087891,0.24473188817501068,-0.17201194167137146,0.05367411673069,0.0,0.0,61.0,28.0,0.028,-0.0016146695706993341,0.0005001996178179979,0.026380911469459534,-0.002208009595051408,0.0013335305266082287,-0.0045973192900419235,0.008813048712909222,0.27588769793510437,0.10456022620201111,0.025511329993605614,-0.010461869649589062,4.2278338696633e-06,0.0002137328265234828,3.737243413925171,10.0,0.0,0.0,0.0,0.0,0.0,0.228,32.766,1.285,0.27,2.829,2018.5809326171875,809.9569091796875,28.999170303344727,,False,
1783704303.8809354,2026-07-10T10:25:03,13432,20260710_102458,,,,,,ground_idle,,,,,,,,,False,0.004657283890992403,-0.0023616806138306856,1.0010380744934082,-0.30860140919685364,0.033321745693683624,-0.00616823835298419,0.0,0.0,56.0,28.0,0.028,-0.0016146695706993341,0.0005001996178179979,0.026380911469459534,-0.002208009595051408,0.0013335305266082287,-0.0045973192900419235,0.008813048712909222,0.27588769793510437,0.10456022620201111,0.026335405185818672,-0.004492797888815403,4.097301825822797e-06,0.00020856490300502628,3.7319648265838623,10.0,0.0,0.0,0.0,0.0,0.0,0.228,32.766,1.285,0.27,2.829,2018.5809326171875,809.9569091796875,28.999170303344727,,False,
1783704303.8911066,2026-07-10T10:25:03,13440,20260710_102458,,,,,,ground_idle,,,,,,,,,False,0.004488850478082895,-0.001391490106470883,1.0003862380981445,-0.021260343492031097,-0.6060194969177246,0.18568900227546692,0.0,0.0,73.0,27.0,0.027,-0.0016605716664344072,0.0005228351801633835,0.026567474007606506,-0.002264586975798011,0.0009364643483422697,-0.0030518306884914637,0.007491377182304859,0.27753767371177673,0.10451565682888031,0.026335405185818672,-0.004492797888815403,4.097301825822797e-06,0.00020856490300502628,3.7319648265838623,10.0,0.0,0.0,0.0,0.0,0.0,0.228,32.766,1.285,0.271,2.829,2018.5809326171875,809.9569091796875,28.999170303344727,,False,
1783704303.9012594,2026-07-10T10:25:03,13447,20260710_102458,,,,,,ground_idle,,,,,,,,,False,0.003118955297395587,-0.0006087498040869832,0.9996806383132935,0.16895347833633423,0.02043764479458332,-0.15746796131134033,0.0,0.0,58.0,27.0,0.027,-0.0016605716664344072,0.0005228351801633835,0.026567474007606506,-0.002264586975798011,0.0009364643483422697,-0.0030518306884914637,0.007491377182304859,0.27753767371177673,0.10451565682888031,0.026335405185818672,-0.004492797888815403,4.097301825822797e-06,0.00020856490300502628,3.7319648265838623,10.0,0.0,0.0,0.0,0.0,0.0,0.228,32.766,1.285,0.271,2.829,2018.5809326171875,809.9569091796875,28.999170303344727,,False,
1783704303.9114125,2026-07-10T10:25:03,13460,20260710_102458,,,,,,ground_idle,,,,,,,,,False,0.0029466741252690554,0.000255621038377285,0.999845564365387,-0.23012349009513855,0.24355283379554749,-0.1301816999912262,-1.0,-3.0,59.0,27.0,0.027,-0.0006500614108517766,0.0008700399775989354,0.02650836482644081,0.0024731364101171494,0.0023961965925991535,-0.003134538885205984,-0.0029750624671578407,0.2377447634935379,0.10256496071815491,0.026335405185818672,-0.004492797888815403,4.097301825822797e-06,0.00020856490300502628,3.7319648265838623,10.0,0.0,0.0,0.0,0.0,0.0,0.228,32.766,1.285,0.271,2.829,2018.5809326171875,809.9569091796875,28.999170303344727,,False,
1783704303.9216204,2026-07-10T10:25:03,13467,20260710_102458,,,,,,ground_idle,,,,,,,,,False,0.004111402668058872,0.0004648327303584665,1.0018643140792847,-0.4954659640789032,-0.2066514641046524,0.28511130809783936,0.0,3.0,57.0,27.0,0.027,-0.0006500614108517766,0.0008700399775989354,0.02650836482644081,0.0024731364101171494,0.0023961965925991535,-0.003134538885205984,-0.0029750624671578407,0.2377447634935379,0.10256496071815491,0.026335405185818672,-0.004492797888815403,4.097301825822797e-06,0.00020856490300502628,3.7319648265838623,10.0,0.0,0.0,0.0,0.0,0.0,0.228,32.766,1.285,0.271,2.829,2018.5809326171875,809.9569091796875,28.999170303344727,,False,
1783704303.9319305,2026-07-10T10:25:03,13484,20260710_102458,,,,,,ground_idle,,,,,,,,,False,0.0026262388564646244,0.0006178559851832688,1.0021711587905884,-0.06108763441443443,-0.2647320628166199,0.2219720333814621,1.0,0.0,68.0,27.0,0.027,-0.0016453340649604797,0.0005340551142580807,0.026452554389834404,-0.002411863300949335,0.0006486471393145621,-0.0027946066111326218,0.0062424056231975555,0.2755824625492096,0.10212323814630508,0.026452554389834404,-0.0027830558829009533,4.2278597902623005e-06,0.00021373404888436198,3.737243413925171,10.0,0.0,0.0,0.0,0.0,0.0,0.228,32.766,1.285,0.271,2.829,2018.6849365234375,809.9476928710938,29.005889892578125,,False,
1783704303.9421253,2026-07-10T10:25:03,13487,20260710_102458,,,,,,ground_idle,,,,,,,,,False,0.0039379592053592205,0.00044712037197314203,0.9998345971107483,0.22240641713142395,-0.08374598622322083,-0.22483420372009277,2.0,-3.0,46.0,27.0,0.027,-0.0016453340649604797,0.0005340551142580807,0.026452554389834404,-0.002411863300949335,0.0006486471393145621,-0.0027946066111326218,0.0062424056231975555,0.2755824625492096,0.10212323814630508,0.026452554389834404,-0.0027830558829009533,4.2278597902623005e-06,0.00021373404888436198,3.737243413925171,10.0,0.0,0.0,0.0,0.0,0.0,0.227,32.766,1.297,0.271,2.839,2018.6849365234375,809.9476928710938,29.005889892578125,,False,
1783704303.952323,2026-07-10T10:25:03,13504,20260710_102458,,,,,,ground_idle,,,,,,,,,False,0.0025867761578410864,0.0005852046888321638,1.0019288063049316,0.05906028673052788,-0.25312384963035583,0.061277832835912704,1.0,0.0,50.0,29.0,0.029,-0.0007129370933398604,-0.0003917375870514661,0.027561945840716362,0.001742244465276599,-0.0036082621663808823,0.003141084685921669,0.039594780653715134,0.2437928169965744,0.10316512733697891,0.026452554389834404,-0.0027830558829009533,4.2278597902623005e-06,0.00021373404888436198,3.737243413925171,10.0,0.0,0.0,0.0,0.0,0.0,0.227,32.766,1.297,0.271,2.839,2018.6849365234375,809.9476928710938,29.005889892578125,,False,
1783704303.9624963,2026-07-10T10:25:03,13514,20260710_102458,,,,,,ground_idle,,,,,,,,,False,0.005840230733156204,0.00059713632799685,1.0018689632415771,0.03895167261362076,0.004861158784478903,0.15679067373275757,-3.0,2.0,56.0,29.0,0.029,-0.0007129370933398604,-0.0003917375870514661,0.027561945840716362,0.001742244465276599,-0.0036082621663808823,0.003141084685921669,0.039594780653715134,0.2437928169965744,0.10316512733697891,0.026452554389834404,-0.0027830558829009533,4.2278597902623005e-06,0.00021373404888436198,3.737243413925171,10.0,0.0,0.0,0.0,0.0,0.0,0.227,32.766,1.297,0.271,2.839,2018.6849365234375,809.9476928710938,29.005889892578125,,False,
1783704303.9728873,2026-07-10T10:25:03,13524,20260710_102458,,,,,,ground_idle,,,,,,,,,False,0.004454847425222397,0.00041014980524778366,0.9993467330932617,-0.06527560949325562,0.2089579552412033,0.2575967609882355,0.0,0.0,64.0,29.0,0.029,-0.001345939701423049,0.0005320784403011203,0.027633998543024063,-0.0014773855218663812,0.0009196621249429882,0.0035405720118433237,0.006673688534647226,0.2670358121395111,0.10339560359716415,0.026452554389834404,-0.0027830558829009533,4.2278597902623005e-06,0.00021373404888436198,3.737243413925171,10.0,0.0,0.0,0.0,0.0,0.0,0.227,32.766,1.297,0.271,2.839,2018.6849365234375,809.9476928710938,29.005889892578125,,False,
1783704303.983197,2026-07-10T10:25:03,13534,20260710_102458,,,,,,ground_idle,,,,,,,,,False,0.004454847425222397,0.00041014980524778366,0.9993467330932617,-0.06527560949325562,0.2089579552412033,0.2575967609882355,3.0,0.0,56.0,29.0,0.029,-0.001345939701423049,0.0005320784403011203,0.027633998543024063,-0.0014773855218663812,0.0009196621249429882,0.0035405720118433237,0.006673688534647226,0.2670358121395111,0.10339560359716415,0.027670864015817642,0.0035601367708295584,4.097301825822797e-06,0.00020856483024545014,3.7319648265838623,10.0,0.0,0.0,0.0,0.0,0.0,0.227,32.766,1.297,0.273,2.839,2018.6849365234375,809.9476928710938,29.005889892578125,,False,
1783704303.9933732,2026-07-10T10:25:03,13544,20260710_102458,,,,,,ground_idle,,,,,,,,,False,0.003422768786549568,0.0016411913093179464,1.002831220626831,-0.038999736309051514,-0.3980024456977844,-0.04280582442879677,0.0,0.0,68.0,29.0,0.029,-0.0013512702425941825,-0.00043137563625350595,0.02826017141342163,-0.0013397954171523452,-0.0034715034998953342,0.006376662757247686,0.04134902358055115,0.2623983323574066,0.1045929566025734,0.027670864015817642,0.0035601367708295584,4.097301825822797e-06,0.00020856483024545014,3.7319648265838623,10.0,0.0,0.0,0.0,0.0,0.0,0.227,32.766,1.297,0.273,2.839,2018.6849365234375,809.9476928710938,29.005889892578125,,False,
1783704304.0035388,2026-07-10T10:25:04,13554,20260710_102458,,,,,,ground_idle,,,,,,,,,False,0.0059479339979588985,0.0014227090869098902,1.0004522800445557,0.025101475417613983,-0.015120365656912327,0.08595246076583862,-3.0,0.0,65.0,29.0,0.029,-0.0013512702425941825,-0.00043137563625350595,0.02826017141342163,-0.0013397954171523452,-0.0034715034998953342,0.006376662757247686,0.04134902358055115,0.2623983323574066,0.1045929566025734,0.027670864015817642,0.0035601367708295584,4.097301825822797e-06,0.00020856483024545014,3.7319648265838623,10.0,0.0,0.0,0.0,0.0,0.0,0.227,32.766,1.297,0.273,2.839,2018.6849365234375,809.9476928710938,29.005889892578125,,False,
1783704304.013731,2026-07-10T10:25:04,13564,20260710_102458,,,,,,ground_idle,,,,,,,,,False,0.0039054055232554674,0.002077836310490966,1.0009818077087402,-0.056310415267944336,-0.24772967398166656,-0.2562544345855713,0.0,1.0,59.0,29.0,0.029,-0.0016622027615085244,0.0005304281949065626,0.028397008776664734,-0.0027579590678215027,0.0013472557766363025,0.006886554881930351,0.005070696584880352,0.27563953399658203,0.10490655899047852,0.027670864015817642,0.0035601367708295584,4.097301825822797e-06,0.00020856483024545014,3.7319648265838623,10.0,0.0,0.0,0.0,0.0,0.0,0.227,32.766,1.297,0.273,2.839,2018.6849365234375,809.9476928710938,29.005889892578125,,False,
1783704304.0239227,2026-07-10T10:25:04,13574,20260710_102458,,,,,,ground_idle,,,,,,,,,False,0.0039405832067132,0.0014972701901569963,1.0003635883331299,-0.23903150856494904,0.0704338327050209,-0.04814046993851662,0.0,0.0,55.0,29.0,0.029,-0.0016622027615085244,0.0005304281949065626,0.028397008776664734,-0.0027579590678215027,0.0013472557766363025,0.006886554881930351,0.005070696584880352,0.27563953399658203,0.10490655899047852,0.027670864015817642,0.0035601367708295584,4.097301825822797e-06,0.00020856483024545014,3.7319648265838623,10.0,0.0,0.0,0.0,0.0,0.0,0.227,32.766,1.297,0.273,2.839,2018.6849365234375,809.9476928710938,29.005889892578125,,False,
1783704304.0340989,2026-07-10T10:25:04,13584,20260710_102458,,,,,,ground_idle,,,,,,,,,False,0.0039405832067132,0.0014972701901569963,1.0003635883331299,-0.23903150856494904,0.0704338327050209,-0.04814046993851662,1.0,0.0,63.0,29.0,0.029,-0.0016740302089601755,0.0002274140133522451,0.02853723056614399,-0.00266954954713583,0.00015845923917368054,0.007048665080219507,0.014954352751374245,0.27504101395606995,0.10354568809270859,0.02853723056614399,0.007061368320137262,4.227874342177529e-06,0.00021373466006480157,3.737243413925171,10.0,0.0,0.0,0.0,0.0,0.0,0.227,32.766,32.766,0.273,2.852,2018.7451171875,809.9422607421875,29.017826080322266,,False,
1783704304.0442855,2026-07-10T10:25:04,13594,20260710_102458,,,,,,ground_idle,,,,,,,,,False,0.00426706625148654,0.0012867857003584504,0.9998244643211365,0.1776721179485321,-0.045274682343006134,-0.23884734511375427,-6.0,-5.0,42.0,29.0,0.029,-0.0016740302089601755,0.0002274140133522451,0.02853723056614399,-0.00266954954713583,0.00015845923917368054,0.007048665080219507,0.014954352751374245,0.27504101395606995,0.10354568809270859,0.02853723056614399,0.007061368320137262,4.227874342177529e-06,0.00021373466006480157,3.737243413925171,10.0,0.0,0.0,0.0,0.0,0.0,0.227,32.766,32.766,0.273,2.852,2018.7451171875,809.9422607421875,29.017826080322266,,False,
1783704304.0544717,2026-07-10T10:25:04,13604,20260710_102458,,,,,,ground_idle,,,,,,,,,False,0.004040737636387348,1.0062304909297382e-06,0.9993008375167847,0.043966144323349,0.008078756742179394,-0.17002499103546143,3.0,4.0,53.0,29.0,0.029,-0.0013407700462266803,0.0011373097077012062,0.02887585200369358,-0.0010009645484387875,0.004492658190429211,0.008050933480262756,-0.013038366101682186,0.26285386085510254,0.10417566448450089,0.02853723056614399,0.007061368320137262,4.227874342177529e-06,0.00021373466006480157,3.737243413925171,10.0,0.0,0.0,0.0,0.0,0.0,0.227,32.766,32.766,0.273,2.852,2018.7451171875,809.9422607421875,29.017826080322266,,False,
1783704304.0646825,2026-07-10T10:25:04,13617,20260710_102458,,,,,,ground_idle,,,,,,,,,False,0.0042898342944681644,0.00188866863027215,0.9981380701065063,-0.1526368409395218,-0.25453537702560425,0.05384768545627594,0.0,1.0,63.0,29.0,0.029,-0.0013407700462266803,0.0011373097077012062,0.02887585200369358,-0.0010009645484387875,0.004492658190429211,0.008050933480262756,-0.013038366101682186,0.26285386085510254,0.10417566448450089,0.02853723056614399,0.007061368320137262,4.227874342177529e-06,0.00021373466006480157,3.737243413925171,10.0,0.0,0.0,0.0,0.0,0.0,0.227,32.766,32.766,0.273,2.852,2018.7451171875,809.9422607421875,29.017826080322266,,False,
1783704304.0748637,2026-07-10T10:25:04,13627,20260710_102458,,,,,,ground_idle,,,,,,,,,False,0.0039972602389752865,-0.00017605091852601618,1.0002329349517822,0.00398103566840291,0.1367759257555008,-0.17863652110099792,2.0,-3.0,66.0,29.0,0.029,-0.0016286671161651611,0.0005160921718925238,0.02903839759528637,-0.0023859706707298756,0.0014979926636442542,0.007892557419836521,0.009780039079487324,0.2722037136554718,0.10308470577001572,0.02853723056614399,0.007061368320137262,4.227874342177529e-06,0.00021373466006480157,3.737243413925171,10.0,0.0,0.0,0.0,0.0,0.0,0.227,32.766,32.766,0.273,2.852,2018.7451171875,809.9422607421875,29.017826080322266,,False,
1783704304.085036,2026-07-10T10:25:04,13637,20260710_102458,,,,,,ground_idle,,,,,,,,,False,0.0028846391942352057,0.001574688940308988,0.9993875026702881,-0.041547562927007675,-0.32316145300865173,-0.059606898576021194,-2.0,3.0,65.0,24.0,0.024,-0.0016286671161651611,0.0005160921718925238,0.02903839759528637,-0.0023859706707298756,0.0014979926636442542,0.007892557419836521,0.009780039079487324,0.2722037136554718,0.10308470577001572,0.029120884835720062,0.007823539897799492,4.097250894119497e-06,0.00020856385526712984,3.7319648265838623,10.0,0.0,0.0,0.0,0.0,0.0,0.227,32.766,32.766,0.271,2.852,2018.7451171875,809.9422607421875,29.017826080322266,,False,
1783704304.0952013,2026-07-10T10:25:04,13647,20260710_102458,,,,,,ground_idle,,,,,,,,,False,0.0051491702906787395,0.0008760524797253311,0.9978362321853638,-0.16683509945869446,-0.16579534113407135,-0.08518508076667786,0.0,0.0,66.0,24.0,0.024,-0.0016023784410208464,0.0005006450810469687,0.027069538831710815,-0.0023099915124475956,0.0014660682063549757,-0.0028169886209070683,0.008736520074307919,0.2728302776813507,0.10281649976968765,0.029120884835720062,0.007823539897799492,4.097250894119497e-06,0.00020856385526712984,3.7319648265838623,10.0,0.0,0.0,0.0,0.0,0.0,0.227,32.766,32.766,0.271,2.852,2018.7451171875,809.9422607421875,29.017826080322266,,False,
1783704304.1053658,2026-07-10T10:25:04,13657,20260710_102458,,,,,,ground_idle,,,,,,,,,False,0.006389232352375984,0.00013484574446920305,1.000709056854248,0.10550397634506226,0.0531405434012413,0.12828297913074493,0.0,0.0,58.0,24.0,0.024,-0.0016023784410208464,0.0005006450810469687,0.027069538831710815,-0.0023099915124475956,0.0014660682063549757,-0.0028169886209070683,0.008736520074307919,0.2728302776813507,0.10281649976968765,0.029120884835720062,0.007823539897799492,4.097250894119497e-06,0.00020856385526712984,3.7319648265838623,10.0,0.0,0.0,0.0,0.0,0.0,0.227,32.766,32.766,0.271,2.852,2018.7451171875,809.9422607421875,29.017826080322266,,False,
1783704304.1155255,2026-07-10T10:25:04,13667,20260710_102458,,,,,,ground_idle,,,,,,,,,False,0.004306966904550791,0.0015614484436810017,1.0001529455184937,-0.12373305857181549,0.011570497415959835,0.2555140256881714,0.0,0.0,68.0,24.0,0.024,-0.001648784731514752,0.0005323525983840227,0.027011016383767128,-0.002191001083701849,0.0016090917633846402,-0.0029416915494948626,0.006310509517788887,0.2733355462551117,0.10217243432998657,0.029120884835720062,0.007823539897799492,4.097250894119497e-06,0.00020856385526712984,3.7319648265838623,10.0,0.0,0.0,0.0,0.0,0.0,0.227,32.766,32.766,0.271,2.852,2018.7451171875,809.9422607421875,29.017826080322266,,False,
1783704304.1257696,2026-07-10T10:25:04,13677,20260710_102458,,,,,,ground_idle,,,,,,,,,False,0.00480133481323719,0.0019225639989599586,1.000102162361145,0.1503267139196396,-0.23321713507175446,0.05802614986896515,-2.0,0.0,62.0,24.0,0.024,-0.001648784731514752,0.0005323525983840227,0.027011016383767128,-0.002191001083701849,0.0016090917633846402,-0.0029416915494948626,0.006310509517788887,0.2733355462551117,0.10217243432998657,0.029120884835720062,0.007823539897799492,4.097250894119497e-06,0.00020856385526712984,3.7319648265838623,10.0,0.0,0.0,0.0,0.0,0.0,0.227,32.766,32.766,0.271,2.852,2018.7451171875,809.9422607421875,29.017826080322266,,False,
1783704304.1359315,2026-07-10T10:25:04,13687,20260710_102458,,,,,,ground_idle,,,,,,,,,False,0.0046874457038939,-0.00014257023576647043,1.0017095804214478,0.031101513653993607,-0.3495296537876129,0.04353082552552223,4.0,-3.0,46.0,24.0,0.024,-0.0016654280479997396,0.0011696548899635673,0.02695065177977085,-0.002037502359598875,0.004615008365362883,-0.003008101833984256,-0.01363349612802267,0.27390098571777344,0.10154199600219727,0.02695065177977085,-0.002997273113578558,4.227825229463633e-06,0.0002137336996383965,3.737243413925171,10.0,0.0,0.0,0.0,0.0,0.0,0.229,32.766,1.332,0.271,2.838,2018.7176513671875,809.94482421875,29.029468536376953,,False,
1783704304.146096,2026-07-10T10:25:04,13697,20260710_102458,,,,,,ground_idle,,,,,,,,,False,0.0011862466344609857,0.0002024139539571479,1.000992774963379,0.052109941840171814,0.022571993991732597,0.06645573675632477,0.0,0.0,54.0,27.0,0.027,-0.0016654280479997396,0.0011696548899635673,0.02695065177977085,-0.002037502359598875,0.004615008365362883,-0.003008101833984256,-0.01363349612802267,0.27390098571777344,0.10154199600219727,0.02695065177977085,-0.002997273113578558,4.227825229463633e-06,0.0002137336996383965,3.737243413925171,10.0,0.0,0.0,0.0,0.0,0.0,0.229,32.766,1.332,0.271,2.838,2018.7176513671875,809.94482421875,29.029468536376953,,False,
1783704304.156251,2026-07-10T10:25:04,13707,20260710_102458,,,,,,ground_idle,,,,,,,,,False,0.0031688958406448364,0.001992474077269435,0.9995623826980591,0.1364080309867859,0.13003316521644592,-0.05202166363596916,1.0,1.0,63.0,27.0,0.027,-0.0007061386131681502,-0.00010667784226825461,0.026935916393995285,0.0021703820675611496,-0.0013793820980936289,-0.002515474334359169,0.03454917296767235,0.24227771162986755,0.10104230791330338,0.02695065177977085,-0.002997273113578558,4.227825229463633e-06,0.0002137336996383965,3.737243413925171,10.0,0.0,0.0,0.0,0.0,0.0,0.229,32.766,1.332,0.271,2.838,2018.7176513671875,809.94482421875,29.029468536376953,,False,
1783704304.1664047,2026-07-10T10:25:04,13717,20260710_102458,,,,,,ground_idle,,,,,,,,,False,0.005396737717092037,0.0008961066487245262,1.0014837980270386,-0.11826344579458237,0.12011060118675232,0.1777079850435257,-3.0,1.0,61.0,27.0,0.027,-0.0007061386131681502,-0.00010667784226825461,0.026935916393995285,0.0021703820675611496,-0.0013793820980936289,-0.002515474334359169,0.03454917296767235,0.24227771162986755,0.10104230791330338,0.02695065177977085,-0.002997273113578558,4.227825229463633e-06,0.0002137336996383965,3.737243413925171,10.0,0.0,0.0,0.0,0.0,0.0,0.229,32.766,1.332,0.271,2.838,2018.7176513671875,809.94482421875,29.029468536376953,,False,
1783704304.176689,2026-07-10T10:25:04,13727,20260710_102458,,,,,,ground_idle,,,,,,,,,False,0.0026588866021484137,0.0007595017668791115,1.0017507076263428,0.06027444824576378,0.1304449588060379,0.06688132137060165,0.0,1.0,60.0,27.0,0.027,-0.0013385000638663769,0.0005279613542370498,0.026889821514487267,-0.0010254494845867157,0.0018590037943795323,-0.0024543805047869682,0.011268996633589268,0.2626371681690216,0.10063020139932632,0.02695065177977085,-0.002997273113578558,4.227825229463633e-06,0.0002137336996383965,3.737243413925171,10.0,0.0,0.0,0.0,0.0,0.0,0.229,32.766,1.332,0.271,2.838,2018.7176513671875,809.94482421875,29.029468536376953,,False,
1783704304.1872787,2026-07-10T10:25:04,13739,20260710_102458,,,,,,ground_idle,,,,,,,,,False,0.0024281153455376625,-0.0006415197276510298,0.9990007877349854,0.2671069800853729,0.031176161020994186,-0.011328451335430145,0.0,0.0,64.0,28.0,0.028,-0.0016638269880786538,0.0005349353887140751,0.027315597981214523,-0.0026907611172646284,0.0016989244613796473,0.00011061890108976513,0.011268996633589268,0.2626371681690216,0.10063020139932632,0.026865843683481216,-0.002248284872621298,4.097271357750287e-06,0.00020856437913607806,3.7319648265838623,10.0,0.0,0.0,0.0,0.0,0.0,0.229,32.766,1.332,32.766,2.838,2018.7176513671875,809.94482421875,29.029468536376953,,False,
1783704304.197465,2026-07-10T10:25:04,13747,20260710_102458,,,,,,ground_idle,,,,,,,,,False,0.005766266956925392,0.0006226162076927722,0.9985886216163635,0.01906837709248066,0.1448606699705124,0.330178439617157,0.0,0.0,63.0,28.0,0.028,-0.0016638269880786538,0.0005349353887140751,0.027315597981214523,-0.0026907611172646284,0.0016989244613796473,0.00011061890108976513,0.014573853462934494,0.2734939157962799,0.09946120530366898,0.026865843683481216,-0.002248284872621298,4.097271357750287e-06,0.00020856437913607806,3.7319648265838623,10.0,0.0,0.0,0.0,0.0,0.0,0.229,32.766,1.332,32.766,2.838,2018.7176513671875,809.94482421875,29.029468536376953,,False,
1783704304.2079616,2026-07-10T10:25:04,13759,20260710_102458,,,,,,ground_idle,,,,,,,,,False,0.005218538921326399,0.000836791645269841,1.0006126165390015,-0.08281408250331879,-0.23045770823955536,-0.2124989777803421,-5.0,-4.0,64.0,28.0,0.028,-0.0003817735123448074,0.0021745359990745783,0.027318015694618225,0.0034864284098148346,0.009088403545320034,-2.719399162742775e-06,0.014573853462934494,0.2734939157962799,0.09946120530366898,0.026865843683481216,-0.002248284872621298,4.097271357750287e-06,0.00020856437913607806,3.7319648265838623,10.0,0.0,0.0,0.0,0.0,0.0,0.229,32.766,1.332,32.766,2.838,2018.7176513671875,809.94482421875,29.029468536376953,,False,
1783704304.2181585,2026-07-10T10:25:04,13767,20260710_102458,,,,,,ground_idle,,,,,,,,,False,0.0036306786350905895,-0.0010057707550004125,0.9980102181434631,0.02249702252447605,0.2696691155433655,-0.060048095881938934,4.0,3.0,62.0,28.0,0.028,-0.0003817735123448074,0.0021745359990745783,0.027318015694618225,0.0034864284098148346,0.009088403545320034,-2.719399162742775e-06,-0.041255559772253036,0.2272256463766098,0.10078811645507812,0.026865843683481216,-0.002248284872621298,4.097271357750287e-06,0.00020856437913607806,3.7319648265838623,10.0,0.0,0.0,0.0,0.0,0.0,0.229,32.766,1.332,32.766,2.838,2018.7176513671875,809.94482421875,29.029468536376953,,False,
1783704304.2283134,2026-07-10T10:25:04,13779,20260710_102458,,,,,,ground_idle,,,,,,,,,False,0.0037149281706660986,9.278624929720536e-05,0.9997867941856384,0.042966973036527634,-0.16555073857307434,0.09406118094921112,0.0,0.0,58.0,28.0,0.028,-0.0013578655198216438,0.0008730642730370164,0.027337435632944107,-0.0011311935959383845,0.002580487634986639,-9.550290269544348e-05,-0.041255559772253036,0.2272256463766098,0.10078811645507812,0.026865843683481216,-0.002248284872621298,4.097271357750287e-06,0.00020856437913607806,3.7319648265838623,10.0,0.0,0.0,0.0,0.0,0.0,0.229,32.766,1.332,32.766,2.838,2018.7176513671875,809.94482421875,29.029468536376953,,False,
1783704304.2384703,2026-07-10T10:25:04,13787,20260710_102458,,,,,,ground_idle,,,,,,,,,False,0.0031513108406215906,0.000226634627324529,1.00233793258667,0.13921543955802917,0.3641745448112488,-0.20241205394268036,0.0,-3.0,41.0,28.0,0.028,-0.0013578655198216438,0.0008730642730370164,0.027337435632944107,-0.0011311935959383845,0.002580487634986639,-9.550290269544348e-05,0.00767661863937974,0.25864386558532715,0.10089442878961563,0.027337435632944107,-9.076222340809181e-05,4.227800218359334e-06,0.00021373238996602595,3.737243413925171,10.0,0.0,0.0,0.0,0.0,0.0,0.229,32.766,1.314,32.766,2.825,2018.7559814453125,809.9415283203125,29.039098739624023,,False,
1783704304.248728,2026-07-10T10:25:04,13800,20260710_102458,,,,,,ground_idle,,,,,,,,,False,0.0037399721331894398,-0.00016559666255488992,1.0021332502365112,0.012023473158478737,-0.1841815710067749,0.05261681228876114,-4.0,-1.0,49.0,27.0,0.027,-6.908021168783307e-05,0.0021165190264582634,0.027185620740056038,0.004534451756626368,0.008046876639127731,-0.0004914117162115872,-0.032668158411979675,0.2107296586036682,0.10178463906049728,0.027337435632944107,-9.076222340809181e-05,4.227800218359334e-06,0.00021373238996602595,3.737243413925171,10.0,0.0,0.0,0.0,0.0,0.0,0.229,32.766,1.314,32.766,2.825,2018.7559814453125,809.9415283203125,29.039098739624023,,False,
1783704304.2588847,2026-07-10T10:25:04,13807,20260710_102458,,,,,,ground_idle,,,,,,,,,False,0.0030856148805469275,-0.0014510900946334004,1.0001603364944458,0.2528882324695587,-0.07569337636232376,0.09914261847734451,4.0,4.0,65.0,27.0,0.027,-6.908021168783307e-05,0.0021165190264582634,0.027185620740056038,0.004534451756626368,0.008046876639127731,-0.0004914117162115872,-0.032668158411979675,0.2107296586036682,0.10178463906049728,0.027337435632944107,-9.076222340809181e-05,4.227800218359334e-06,0.00021373238996602595,3.737243413925171,10.0,0.0,0.0,0.0,0.0,0.0,0.229,32.766,1.314,32.766,2.825,2018.7559814453125,809.9415283203125,29.039098739624023,,False,
1783704304.269037,2026-07-10T10:25:04,13820,20260710_102458,,,,,,ground_idle,,,,,,,,,False,0.004406512249261141,-0.0004442580393515527,0.9997062087059021,0.19970117509365082,0.0017805888783186674,0.04349353164434433,3.0,-2.0,60.0,27.0,0.027,-0.0007196639780886471,-9.903909085551277e-05,0.027198774740099907,0.0013270631898194551,-0.0026721253525465727,-0.00027666828827932477,0.04885873943567276,0.23537328839302063,0.09884843230247498,0.027337435632944107,-9.076222340809181e-05,4.227800218359334e-06,0.00021373238996602595,3.737243413925171,10.0,0.0,0.0,0.0,0.0,0.0,0.229,32.766,1.314,32.766,2.825,2018.7559814453125,809.9415283203125,29.039098739624023,,False,
1783704304.279201,2026-07-10T10:25:04,13831,20260710_102458,,,,,,ground_idle,,,,,,,,,False,0.005500254221260548,-0.0016046627424657345,1.0000200271606445,-0.11067952960729599,-0.31938114762306213,0.015574091114103794,-1.0,2.0,63.0,27.0,0.027,-0.0007196639780886471,-9.903909085551277e-05,0.027198774740099907,0.0013270631898194551,-0.0026721253525465727,-0.00027666828827932477,0.04885873943567276,0.23537328839302063,0.09884843230247498,0.027198901399970055,-0.00024071618099696934,4.097214059584076e-06,0.00020856200717389584,3.737243413925171,10.0,0.0,0.0,0.0,0.0,0.0,0.229,32.766,1.314,32.766,2.825,2018.7559814453125,809.9415283203125,29.039098739624023,,False,
1783704304.2893836,2026-07-10T10:25:04,13840,20260710_102458,,,,,,ground_idle,,,,,,,,,False,0.003776073455810547,-0.0015855643432587385,0.9996875524520874,-0.007909171283245087,0.00574689032509923,-0.06884510070085526,-2.0,0.0,56.0,27.0,0.027,-0.0013275593519210815,0.0007975629414431751,0.027114631608128548,-0.0013082735240459442,0.0011788489064201713,-0.0007372979307547212,0.017932413145899773,0.2559002637863159,0.09833608567714691,0.027198901399970055,-0.00024071618099696934,4.097214059584076e-06,0.00020856200717389584,3.7319648265838623,10.0,0.0,0.0,0.0,0.0,0.0,0.229,32.766,1.314,0.27,2.825,2018.7559814453125,809.9415283203125,29.039098739624023,,False,
1783704304.2996402,2026-07-10T10:25:04,13847,20260710_102458,,,,,,ground_idle,,,,,,,,,False,0.004917661193758249,0.0004938720958307385,0.9994814395904541,-0.11998879164457321,-0.515623927116394,0.07886216789484024,1.0,0.0,67.0,27.0,0.027,-0.0013275593519210815,0.0007975629414431751,0.027114631608128548,-0.0013082735240459442,0.0011788489064201713,-0.0007372979307547212,0.017932413145899773,0.2559002637863159,0.09833608567714691,0.027198901399970055,-0.00024071618099696934,4.097214059584076e-06,0.00020856200717389584,3.7319648265838623,10.0,0.0,0.0,0.0,0.0,0.0,0.229,32.766,1.314,0.27,2.825,2018.7559814453125,809.9415283203125,29.039098739624023,,False,
1783704304.3098688,2026-07-10T10:25:04,13860,20260710_102458,,,,,,ground_idle,,,,,,,,,False,0.004378412384539843,0.0004793155239894986,1.0014370679855347,0.22113604843616486,0.23202884197235107,-0.09056194871664047,-5.0,-3.0,65.0,27.0,0.027,-0.00048192834947258234,0.001915215514600277,0.027103768661618233,0.0027638983447104692,0.0061819907277822495,-0.0006600296474061906,-0.02053237520158291,0.22697819769382477,0.09541879594326019,0.027198901399970055,-0.00024071618099696934,4.097214059584076e-06,0.00020856200717389584,3.7319648265838623,10.0,0.0,0.0,0.0,0.0,0.0,0.229,32.766,1.314,0.27,2.825,2018.7559814453125,809.9415283203125,29.039098739624023,,False,
1783704304.3200357,2026-07-10T10:25:04,13867,20260710_102458,,,,,,ground_idle,,,,,,,,,False,0.004608543589711189,0.00021706169354729354,1.0004541873931885,-0.0498863086104393,0.04692569375038147,0.05593732371926308,4.0,4.0,69.0,27.0,0.027,-0.00048192834947258234,0.001915215514600277,0.027103768661618233,0.0027638983447104692,0.0061819907277822495,-0.0006600296474061906,-0.02053237520158291,0.22697819769382477,0.09541879594326019,0.027198901399970055,-0.00024071618099696934,4.097214059584076e-06,0.00020856200717389584,3.7319648265838623,10.0,0.0,0.0,0.0,0.0,0.0,0.229,32.766,1.314,0.27,2.825,2018.7559814453125,809.9415283203125,29.039098739624023,,False,
1783704304.3301992,2026-07-10T10:25:04,13882,20260710_102458,,,,,,ground_idle,,,,,,,,,False,0.003262410406023264,0.0005880073877051473,1.0023353099822998,0.06592150032520294,0.039359498769044876,-0.10471347719430923,0.0,0.0,59.0,27.0,0.027,-0.001623556949198246,0.0007880901102907956,0.027107037603855133,-0.0024645777884870768,0.0007445286610163748,-0.00034179791691713035,0.021248478442430496,0.26474156975746155,0.09660802781581879,0.027107037603855133,-0.00033069055643863976,4.227802037348738e-06,0.00021373201161623,3.7319648265838623,10.0,0.0,0.0,0.0,0.0,0.0,0.229,32.766,1.314,0.27,2.825,2018.7559814453125,809.9415283203125,29.039098739624023,,False,
1783704304.3403726,2026-07-10T10:25:04,13887,20260710_102458,,,,,,ground_idle,,,,,,,,,False,0.0032998204696923494,-0.002112975576892495,1.000930905342102,0.03349956125020981,-0.08980070054531097,-0.04372786730527878,-4.0,-5.0,45.0,27.0,0.027,-0.001623556949198246,0.0007880901102907956,0.027107037603855133,-0.0024645777884870768,0.0007445286610163748,-0.00034179791691713035,0.021248478442430496,0.26474156975746155,0.09660802781581879,0.027107037603855133,-0.00033069055643863976,4.227802037348738e-06,0.00021373201161623,3.7319648265838623,10.0,0.0,0.0,0.0,0.0,0.0,0.223,32.766,1.303,0.27,2.844,2018.7559814453125,809.9411010742188,29.046768188476562,,False,
1783704304.3506129,2026-07-10T10:25:04,13900,20260710_102458,,,,,,ground_idle,,,,,,,,,False,-0.00025126393302343786,-0.0019976329058408737,1.0024104118347168,-0.10389769077301025,-0.06665945798158646,0.06350255757570267,7.0,1.0,48.0,30.0,0.03,-0.0004917685291729867,-5.303299622028135e-05,0.028427153825759888,0.0023312456905841827,-0.0037514895666390657,0.00650728028267622,0.0530654713511467,0.2281116098165512,0.09742571413516998,0.027107037603855133,-0.00033069055643863976,4.227802037348738e-06,0.00021373201161623,3.7319648265838623,10.0,0.0,0.0,0.0,0.0,0.0,0.223,32.766,1.303,0.27,2.844,2018.7559814453125,809.9411010742188,29.046768188476562,,False,
1783704304.360819,2026-07-10T10:25:04,13907,20260710_102458,,,,,,ground_idle,,,,,,,,,False,0.0022387674544006586,0.0007999730878509581,1.0022270679473877,0.04171404615044594,-0.30830684304237366,-0.14976893365383148,-2.0,3.0,62.0,30.0,0.03,-0.0004917685291729867,-5.303299622028135e-05,0.028427153825759888,0.0023312456905841827,-0.0037514895666390657,0.00650728028267622,0.0530654713511467,0.2281116098165512,0.09742571413516998,0.027107037603855133,-0.00033069055643863976,4.227802037348738e-06,0.00021373201161623,3.7319648265838623,10.0,0.0,0.0,0.0,0.0,0.0,0.223,32.766,1.303,0.27,2.844,2018.7559814453125,809.9411010742188,29.046768188476562,,False,
1783704304.3709812,2026-07-10T10:25:04,13920,20260710_102458,,,,,,ground_idle,,,,,,,,,False,0.0062282998114824295,-0.0008391691371798515,1.0028902292251587,0.009631281718611717,-0.02506417967379093,0.03545580431818962,2.0,0.0,61.0,30.0,0.03,-0.0013332071248441935,-3.217993435100652e-05,0.02856695093214512,-0.0018075057305395603,-0.0036556152626872063,0.006980725564062595,0.05041126906871796,0.25940579175949097,0.0961492508649826,0.027107037603855133,-0.00033069055643863976,4.227802037348738e-06,0.00021373201161623,3.7319648265838623,10.0,0.0,0.0,0.0,0.0,0.0,0.223,32.766,1.303,0.27,2.844,2018.7559814453125,809.9411010742188,29.046768188476562,,False,
1783704304.3811433,2026-07-10T10:25:04,13932,20260710_102458,,,,,,ground_idle,,,,,,,,,False,0.0031824109610170126,-0.0005724757211282849,1.0022410154342651,-0.08935634046792984,-0.2598688304424286,-0.12082935124635696,-1.0,1.0,71.0,30.0,0.03,-0.0013332071248441935,-3.217993435100652e-05,0.02856695093214512,-0.0018075057305395603,-0.0036556152626872063,0.006980725564062595,0.05041126906871796,0.25940579175949097,0.0961492508649826,0.02863945998251438,0.007278731092810631,4.0972386159410235e-06,0.00020856289484072477,3.7319648265838623,10.0,0.0,0.0,0.0,0.0,0.0,0.223,32.766,1.303,0.27,2.844,2018.7559814453125,809.9411010742188,29.046768188476562,,False,
1783704304.3913307,2026-07-10T10:25:04,13940,20260710_102458,,,,,,ground_idle,,,,,,,,,False,0.003764532273635268,0.0008193203830160201,1.00004243850708,-0.06364654004573822,0.07210061699151993,-0.04283394291996956,2.0,-2.0,57.0,29.0,0.029,-0.0010608655866235495,-0.0002715358277782798,0.02886321395635605,-0.0004068572598043829,-0.00462509086355567,0.008091938681900501,0.05531013756990433,0.24639537930488586,0.09589958190917969,0.02863945998251438,0.007278731092810631,4.0972386159410235e-06,0.00020856289484072477,3.7319648265838623,10.0,0.0,0.0,0.0,0.0,0.0,0.223,32.766,1.303,0.273,2.844,2018.7559814453125,809.9411010742188,29.046768188476562,,False,
1783704304.4015522,2026-07-10T10:25:04,13947,20260710_102458,,,,,,ground_idle,,,,,,,,,False,0.0038727987557649612,-0.0011467429576441646,0.998813271522522,0.10268226265907288,-0.10485436767339706,-0.03167349100112915,-8.0,-1.0,41.0,29.0,0.029,-0.0010608655866235495,-0.0002715358277782798,0.02886321395635605,-0.0004068572598043829,-0.00462509086355567,0.008091938681900501,0.05531013756990433,0.24639537930488586,0.09589958190917969,0.02863945998251438,0.007278731092810631,4.0972386159410235e-06,0.00020856289484072477,3.7319648265838623,10.0,0.0,0.0,0.0,0.0,0.0,0.223,32.766,1.303,0.273,2.844,2018.7559814453125,809.9411010742188,29.046768188476562,,False,
1783704304.41174,2026-07-10T10:25:04,13964,20260710_102458,,,,,,ground_idle,,,,,,,,,False,0.00402768375352025,0.0010528675047680736,0.9996215105056763,0.02794877253472805,0.030610209330916405,0.1197093203663826,5.0,2.0,61.0,29.0,0.029,-0.0013183439150452614,0.0005264729843474925,0.02904907427728176,-0.0017335821175947785,-0.0010510183637961745,0.00816356297582388,0.028112227097153664,0.2572113871574402,0.09566085785627365,0.02863945998251438,0.007278731092810631,4.0972386159410235e-06,0.00020856289484072477,3.7319648265838623,10.0,0.0,0.0,0.0,0.0,0.0,0.223,32.766,1.303,0.273,2.844,2018.7559814453125,809.9411010742188,29.046768188476562,,False,
1783704304.4219484,2026-07-10T10:25:04,13974,20260710_102458,,,,,,ground_idle,,,,,,,,,False,0.005730992183089256,0.0008758275653235614,1.0003726482391357,-0.07072702795267105,-0.18905606865882874,-0.0258525088429451,0.0,1.0,63.0,29.0,0.029,-0.0013183439150452614,0.0005264729843474925,0.02904907427728176,-0.0017335821175947785,-0.0010510183637961745,0.00816356297582388,0.028112227097153664,0.2572113871574402,0.09566085785627365,0.02863945998251438,0.007278731092810631,4.0972386159410235e-06,0.00020856289484072477,3.7319648265838623,10.0,0.0,0.0,0.0,0.0,0.0,0.223,32.766,1.303,0.273,2.844,2018.7559814453125,809.9411010742188,29.046768188476562,,False,
1783704304.4321492,2026-07-10T10:25:04,13982,20260710_102458,,,,,,arming,,,,,,,,,False,0.005730992183089256,0.0008758275653235614,1.0003726482391357,-0.07072702795267105,-0.18905606865882874,-0.0258525088429451,0.0,0.0,62.0,29.0,0.029,-0.0015954599948599935,0.000517355976626277,0.029212912544608116,-0.0027562265750020742,-0.0008792139124125242,0.008245643228292465,0.0284415390342474,0.26430684328079224,0.09510767459869385,0.029212912544608116,0.008258726447820663,4.227817953506019e-06,0.00021373281197156757,3.737243413925171,10.0,0.0,0.0,0.0,0.0,0.0,0.223,32.766,1.303,0.273,2.844,2018.7559814453125,809.9411010742188,29.046768188476562,,False,
1783704304.4423246,2026-07-10T10:25:04,13994,20260710_102458,,,,,,arming,,,,,,,,,False,0.0021314381156116724,-0.0010284673189744353,0.9993909001350403,0.018520718440413475,-0.2433937042951584,0.07882063835859299,-2.0,-4.0,44.0,29.0,0.029,-0.0015954599948599935,0.000517355976626277,0.029212912544608116,-0.0027562265750020742,-0.0008792139124125242,0.008245643228292465,0.0284415390342474,0.26430684328079224,0.09510767459869385,0.029212912544608116,0.008258726447820663,4.227817953506019e-06,0.00021373281197156757,3.737243413925171,10.0,0.0,0.0,0.0,0.0,0.0,0.225,32.766,1.314,0.273,2.821,2018.69580078125,809.94677734375,29.056964874267578,,False,
1783704304.452501,2026-07-10T10:25:04,14004,20260710_102458,,,,,,arming,,,,,,,,,False,0.003957878798246384,-0.0010248302714899182,1.0015982389450073,-0.030937500298023224,0.3883405923843384,0.023008469492197037,1.0,0.0,43.0,27.0,0.027,-0.0005478390376083553,0.0007825198699720204,0.028347650542855263,0.0020881551317870617,9.647749538999051e-05,0.0031525660306215286,0.021485870704054832,0.22972486913204193,0.09476129710674286,0.029212912544608116,0.008258726447820663,4.227817953506019e-06,0.00021373281197156757,3.737243413925171,10.0,0.0,0.0,0.0,0.0,0.0,0.225,32.766,1.314,0.273,2.821,2018.69580078125,809.94677734375,29.056964874267578,,False,
1783704304.4627156,2026-07-10T10:25:04,14014,20260710_102458,,,,,,arming,,,,,,,,,False,0.0032642448786646128,-0.0009142032940872014,1.001068353652954,0.061816781759262085,-0.16612891852855682,0.10278243571519852,1.0,4.0,67.0,27.0,0.027,-0.0005478390376083553,0.0007825198699720204,0.028347650542855263,0.0020881551317870617,9.647749538999051e-05,0.0031525660306215286,0.021485870704054832,0.22972486913204193,0.09476129710674286,0.029212912544608116,0.008258726447820663,4.227817953506019e-06,0.00021373281197156757,3.737243413925171,10.0,0.0,0.0,0.0,0.0,0.0,0.225,32.766,1.314,0.273,2.821,2018.69580078125,809.94677734375,29.056964874267578,,False,
1783704304.4728754,2026-07-10T10:25:04,14024,20260710_102458,,,,,,arming,,,,,,,,,False,0.002215119544416666,-0.0007140516536310315,1.0002706050872803,0.24895787239074707,0.5742263197898865,0.15654301643371582,0.0,0.0,63.0,27.0,0.027,-0.0015963120386004448,0.0005116504617035389,0.028415365144610405,-0.0030498511623591185,-0.001453904784284532,0.0033609841484576464,0.03021829016506672,0.2651154100894928,0.09770551323890686,0.029212912544608116,0.008258726447820663,4.227817953506019e-06,0.00021373281197156757,3.737243413925171,10.0,0.0,0.0,0.0,0.0,0.0,0.225,32.766,1.314,0.273,2.821,2018.69580078125,809.94677734375,29.056964874267578,,False,
1783704304.4830942,2026-07-10T10:25:04,14034,20260710_102458,,,,,,arming,,,,,,,,,False,0.002215119544416666,-0.0007140516536310315,1.0002706050872803,0.24895787239074707,0.5742263197898865,0.15654301643371582,1.0,0.0,68.0,27.0,0.027,-0.0015963120386004448,0.0005116504617035389,0.028415365144610405,-0.0030498511623591185,-0.001453904784284532,0.0033609841484576464,0.03021829016506672,0.2651154100894928,0.09770551323890686,0.02844919264316559,0.003494149073958397,4.0972704482555855e-06,0.00020856376795563847,3.7319648265838623,10.0,0.0,7000.0,7000.0,7000.0,7000.0,0.225,32.766,1.314,0.277,2.821,2018.69580078125,809.94677734375,29.056964874267578,,False,
1783704304.4932656,2026-07-10T10:25:04,14044,20260710_102458,,,,,,arming,,,,,,,,,False,0.0043416935950517654,0.0008698884048499167,0.9994990825653076,-0.044322751462459564,-0.12223779410123825,0.1954777091741562,-1.0,-3.0,54.0,27.0,0.027,-0.0007941740332171321,0.0005052019259892404,0.02788437344133854,0.0007789063383825123,-0.001371250837109983,0.0005069503677077591,0.03352944552898407,0.22884973883628845,0.09798857569694519,0.02844919264316559,0.003494149073958397,4.0972704482555855e-06,0.00020856376795563847,3.7319648265838623,10.0,0.0,7000.0,7000.0,7000.0,7000.0,0.225,32.766,1.314,0.277,2.821,2018.69580078125,809.94677734375,29.056964874267578,,False,
1783704304.5034647,2026-07-10T10:25:04,14054,20260710_102458,,,,,,arming,,,,,,,,,False,0.001085324794985354,-0.0011300762416794896,0.9996699094772339,0.2620651423931122,-0.0659637600183487,-0.00820870976895094,-1.0,-2.0,47.0,27.0,0.027,-0.0007941740332171321,0.0005052019259892404,0.02788437344133854,0.0007789063383825123,-0.001371250837109983,0.0005069503677077591,0.03352944552898407,0.22884973883628845,0.09798857569694519,0.02844919264316559,0.003494149073958397,4.0972704482555855e-06,0.00020856376795563847,3.7319648265838623,10.0,0.0,7000.0,7000.0,7000.0,7000.0,0.225,32.766,1.314,0.277,2.821,2018.69580078125,809.94677734375,29.056964874267578,,False,
1783704304.5138175,2026-07-10T10:25:04,14064,20260710_102458,,,,,,arming,,,,,,,,,False,0.005219653248786926,-0.0016562561504542828,1.000593662261963,-0.1660463511943817,0.34792476892471313,0.14977994561195374,0.0,4.0,61.0,27.0,0.027,-0.0013057420728728175,0.0007627691957168281,0.027899092063307762,-0.0019697751849889755,-4.3211275624344125e-05,0.0004681014397647232,0.023932376876473427,0.25018346309661865,0.09861103445291519,0.02844919264316559,0.003494149073958397,4.0972704482555855e-06,0.00020856376795563847,3.7319648265838623,10.0,0.0,7000.0,7000.0,7000.0,7000.0,0.225,32.766,1.314,0.277,2.821,2018.69580078125,809.94677734375,29.056964874267578,,False,
1783704304.5240133,2026-07-10T10:25:04,14074,20260710_102458,,,,,,arming,,,,,,,,,False,0.0075561972334980965,0.0012955199927091599,0.9995219111442566,-0.030091730877757072,-0.19374090433120728,0.04193650931119919,2.0,1.0,62.0,27.0,0.027,-0.0013057420728728175,0.0007627691957168281,0.027899092063307762,-0.0019697751849889755,-4.3211275624344125e-05,0.0004681014397647232,0.023932376876473427,0.25018346309661865,0.09861103445291519,0.02844919264316559,0.003494149073958397,4.0972704482555855e-06,0.00020856376795563847,3.7319648265838623,10.0,0.0,7000.0,7000.0,7000.0,7000.0,0.225,32.766,1.314,0.277,2.821,2018.69580078125,809.94677734375,29.056964874267578,,False,
1783704304.5341957,2026-07-10T10:25:04,14084,20260710_102458,,,,,,arming,,,,,,,,,False,0.0075561972334980965,0.0012955199927091599,0.9995219111442566,-0.030091730877757072,-0.19374090433120728,0.04193650931119919,-1.0,0.0,60.0,27.0,0.027,-0.0015430118655785918,0.0005167971830815077,0.027909737080335617,-0.0027611295226961374,-0.0013480976922437549,0.00047569218440912664,0.0316539965569973,0.25681665539741516,0.10072049498558044,0.027909737080335617,0.0004888171679340303,4.2278356886527035e-06,0.00021373291383497417,3.737243413925171,10.0,0.0,7000.0,7000.0,7000.0,7000.0,0.227,32.766,1.307,0.277,2.843,2018.706787109375,809.9458618164062,29.06814956665039,,False,
1783704304.544379,2026-07-10T10:25:04,14094,20260710_102458,,,,,,arming,,,,,,,,,False,0.005948624573647976,0.00029724949854426086,0.9989529848098755,-0.28324586153030396,-0.04632739722728729,0.17887870967388153,2.0,-3.0,41.0,27.0,0.027,-0.0015430118655785918,0.0005167971830815077,0.027909737080335617,-0.0027611295226961374,-0.0013480976922437549,0.00047569218440912664,0.0316539965569973,0.25681665539741516,0.10072049498558044,0.027909737080335617,0.0004888171679340303,4.2278356886527035e-06,0.00021373291383497417,3.737243413925171,10.0,0.0,7000.0,7000.0,7000.0,7000.0,0.227,32.766,1.307,0.277,2.843,2018.706787109375,809.9458618164062,29.06814956665039,,False,
1783704304.5545595,2026-07-10T10:25:04,14104,20260710_102458,,,,,,arming,,,,,,,,,False,0.003918221686035395,-0.0003877926501445472,1.0011650323867798,-0.10849262028932571,0.10529264807701111,0.23732586205005646,0.0,0.0,45.0,28.0,0.028,-0.0007917408947832882,-9.301313184550963e-06,0.027960456907749176,0.0012889974750578403,-0.0034956317394971848,0.000707523780874908,0.048815883696079254,0.23067322373390198,0.09941937774419785,0.027909737080335617,0.0004888171679340303,4.2278356886527035e-06,0.00021373291383497417,3.737243413925171,10.0,0.0,7000.0,7000.0,7000.0,7000.0,0.227,32.766,1.307,0.277,2.843,2018.706787109375,809.9458618164062,29.06814956665039,,False,
1783704304.5648277,2026-07-10T10:25:04,14117,20260710_102458,,,,,,arming,,,,,,,,,False,0.0032010190188884735,-0.0003163091605529189,1.0009703636169434,0.005625150632113218,0.2717287838459015,0.0005428728181868792,0.0,2.0,61.0,28.0,0.028,-0.0007917408947832882,-9.301313184550963e-06,0.027960456907749176,0.0012889974750578403,-0.0034956317394971848,0.000707523780874908,0.048815883696079254,0.23067322373390198,0.09941937774419785,0.027909737080335617,0.0004888171679340303,4.2278356886527035e-06,0.00021373291383497417,3.737243413925171,10.0,0.0,7000.0,7000.0,7000.0,7000.0,0.227,32.766,1.307,0.277,2.843,2018.706787109375,809.9458618164062,29.06814956665039,,False,
1783704304.5749972,2026-07-10T10:25:04,14127,20260710_102458,,,,,,arming,,,,,,,,,False,0.005283806473016739,-0.00044970682938583195,0.9989323616027832,-0.2024867981672287,0.02481832168996334,-0.049804408103227615,0.0,0.0,68.0,28.0,0.028,-0.0012928708456456661,0.0005093736108392477,0.0279798973351717,-0.0012717314530164003,-0.000896455196198076,0.0008830599253997207,0.025552228093147278,0.2501106560230255,0.09735112637281418,0.027909737080335617,0.0004888171679340303,4.2278356886527035e-06,0.00021373291383497417,3.737243413925171,10.0,0.0,7000.0,7000.0,7000.0,7000.0,0.227,32.766,1.307,0.277,2.843,2018.706787109375,809.9458618164062,29.06814956665039,,False,
1783704304.5851724,2026-07-10T10:25:04,14137,20260710_102458,,,,,,arming,,,,,,,,,False,0.003955727908760309,-0.0015803119167685509,0.9982580542564392,0.1544567197561264,-0.20968471467494965,-0.36393967270851135,2.0,-2.0,51.0,28.0,0.028,-0.0012928708456456661,0.0005093736108392477,0.0279798973351717,-0.0012717314530164003,-0.000896455196198076,0.0008830599253997207,0.025552228093147278,0.2501106560230255,0.09735112637281418,0.027988441288471222,0.0008318331092596054,4.097295914107235e-06,0.0002085638407152146,3.7161290645599365,10.0,0.0,7000.0,7000.0,7000.0,7000.0,0.227,32.766,1.307,0.278,2.843,2018.706787109375,809.9458618164062,29.06814956665039,,False,
1783704304.5953465,2026-07-10T10:25:04,14147,20260710_102458,,,,,,arming,,,,,,,,,False,0.006791424471884966,-0.0012118652230128646,0.9983338713645935,0.198213130235672,-0.6227195262908936,-0.8205509781837463,-3.0,0.0,48.0,28.0,0.028,-0.0007853659335523844,-1.823322418204043e-05,0.02800118736922741,0.0014205919578671455,-0.0037100662011653185,0.0007006129599176347,0.04217302054166794,0.22884561121463776,0.09735943377017975,0.027988441288471222,0.0008318331092596054,4.097295914107235e-06,0.0002085638407152146,3.7161290645599365,10.0,0.0,7000.0,7000.0,7000.0,7000.0,0.227,32.766,1.307,0.278,2.843,2018.706787109375,809.9458618164062,29.06814956665039,,False,
1783704304.6055205,2026-07-10T10:25:04,14157,20260710_102458,,,,,,arming,,,,,,,,,False,0.005337705835700035,-0.0015363623388111591,1.0025676488876343,0.21287569403648376,-0.14871716499328613,1.7169649600982666,0.0,3.0,64.0,28.0,0.028,-0.0007853659335523844,-1.823322418204043e-05,0.02800118736922741,0.0014205919578671455,-0.0037100662011653185,0.0007006129599176347,0.04217302054166794,0.22884561121463776,0.09735943377017975,0.027988441288471222,0.0008318331092596054,4.097295914107235e-06,0.0002085638407152146,3.7161290645599365,10.0,0.0,7000.0,7000.0,7000.0,7000.0,0.227,32.766,1.307,0.278,2.843,2018.706787109375,809.9458618164062,29.06814956665039,,False,
1783704304.6158245,2026-07-10T10:25:04,14167,20260710_102458,,,,,,arming,,,,,,,,,False,0.0041707237251102924,0.0002850782766472548,1.0011115074157715,0.1808176338672638,-0.22669687867164612,1.3894734382629395,-4.0,-5.0,61.0,28.0,0.028,-0.0015641542850062251,0.0007497817277908325,0.02802039496600628,-0.002330269431695342,2.2014056355601497e-07,0.0007584190461784601,0.014094531536102295,0.2646039128303528,0.09668031334877014,0.027988441288471222,0.0008318331092596054,4.097295914107235e-06,0.0002085638407152146,3.7161290645599365,10.0,0.0,7000.0,7000.0,7000.0,7000.0,0.227,32.766,1.307,0.278,2.843,2018.706787109375,809.9458618164062,29.06814956665039,,False,
1783704304.626008,2026-07-10T10:25:04,14177,20260710_102458,,,,,,arming,,,,,,,,,False,0.004130386281758547,-0.0019895783625543118,0.9968463778495789,0.127195343375206,-0.2002057135105133,-0.6075587272644043,5.0,4.0,74.0,28.0,0.028,-0.0015641542850062251,0.0007497817277908325,0.02802039496600628,-0.002330269431695342,2.2014056355601497e-07,0.0007584190461784601,0.014094531536102295,0.2646039128303528,0.09668031334877014,0.027988441288471222,0.0008318331092596054,4.097295914107235e-06,0.0002085638407152146,3.7161290645599365,10.0,0.0,7000.0,7000.0,7000.0,7000.0,0.227,32.766,1.307,0.278,2.843,2018.706787109375,809.9458618164062,29.06814956665039,,False,
1783704304.636174,2026-07-10T10:25:04,14184,20260710_102458,,,,,,arming,,,,,,,,,False,0.006727735046297312,-0.0023257143329828978,0.9987760782241821,-0.03160545974969864,-0.20051346719264984,-0.8041685223579407,5.0,4.0,74.0,28.0,0.028,-0.0013083667727187276,0.0004987060092389584,0.028056511655449867,-0.000991889857687056,-0.0018363427370786667,0.000505111354868859,0.02701730653643608,0.25702643394470215,0.09352382272481918,0.028056511655449867,0.0005104353767819703,4.227837052894756e-06,0.00021373182244133204,3.721407651901245,10.0,0.0,7000.0,7000.0,7000.0,7000.0,0.229,32.766,1.319,0.278,2.824,2018.783203125,809.938720703125,29.077796936035156,,False,
1783704304.6463432,2026-07-10T10:25:04,14197,20260710_102458,,,,,,arming,,,,,,,,,False,0.004415823146700859,-0.00089496118016541,1.000910997390747,-0.07488944381475449,-0.3379038870334625,-0.11586346477270126,-3.0,0.0,46.0,25.0,0.025,-0.0013083667727187276,0.0004987060092389584,0.028056511655449867,-0.000991889857687056,-0.0018363427370786667,0.000505111354868859,0.02701730653643608,0.25702643394470215,0.09352382272481918,0.028056511655449867,0.0005104353767819703,4.227837052894756e-06,0.00021373182244133204,3.721407651901245,10.0,0.0,7000.0,7000.0,7000.0,7000.0,0.229,32.766,1.319,0.278,2.824,2018.783203125,809.938720703125,29.077796936035156,,False,
1783704304.6565087,2026-07-10T10:25:04,14207,20260710_102458,,,,,,arming,,,,,,,,,False,0.007291899062693119,-0.00014236383140087128,1.0026161670684814,-0.03526381030678749,-0.39610493183135986,-0.10177043825387955,5.0,3.0,64.0,25.0,0.025,-0.0005856638308614492,0.0017233610851690173,0.026691213250160217,0.002822831040248275,0.00405343109741807,-0.005903939250856638,-0.022247111424803734,0.2345476895570755,0.10010841488838196,0.028056511655449867,0.0005104353767819703,4.227837052894756e-06,0.00021373182244133204,3.721407651901245,10.0,0.0,7000.0,7000.0,7000.0,7000.0,0.229,32.766,1.319,0.278,2.824,2018.783203125,809.938720703125,29.077796936035156,,False,
1783704304.666802,2026-07-10T10:25:04,14219,20260710_102458,,,,,,arming,,,,,,,,,False,0.0030574144329875708,0.0016192065086215734,1.0010311603546143,-0.304098516702652,-0.6513829231262207,0.6134428381919861,0.0,1.0,67.0,25.0,0.025,-0.0015623754588887095,0.0005279014585539699,0.026584729552268982,-0.0019663337152451277,-0.0018032111693173647,-0.005754291079938412,-0.022247111424803734,0.2345476895570755,0.10010841488838196,0.028056511655449867,0.0005104353767819703,4.227837052894756e-06,0.00021373182244133204,3.721407651901245,10.0,0.0,7000.0,7000.0,7000.0,7000.0,0.229,32.766,1.319,0.278,2.824,2018.783203125,809.938720703125,29.077796936035156,,False,
1783704304.6769655,2026-07-10T10:25:04,14227,20260710_102458,,,,,,arming,,,,,,,,,False,0.009313452057540417,0.000812121550552547,0.9992884397506714,0.06308582425117493,0.20033574104309082,-0.46286115050315857,-1.0,-4.0,59.0,25.0,0.025,-0.0015623754588887095,0.0005279014585539699,0.026584729552268982,-0.0019663337152451277,-0.0018032111693173647,-0.005754291079938412,0.023812271654605865,0.27826765179634094,0.09397174417972565,0.028056511655449867,0.0005104353767819703,4.227837052894756e-06,0.00021373182244133204,3.721407651901245,10.0,0.0,7000.0,7000.0,7000.0,7000.0,0.229,32.766,1.319,0.278,2.824,2018.783203125,809.938720703125,29.077796936035156,,False,
1783704304.687156,2026-07-10T10:25:04,14237,20260710_102458,,,,,,arming,,,,,,,,,False,-0.0019348214846104383,0.001727693248540163,0.9992926120758057,0.13838331401348114,0.16806477308273315,-0.06908219307661057,1.0,3.0,52.0,27.0,0.027,-0.0015623754588887095,0.0005279014585539699,0.026584729552268982,-0.0019663337152451277,-0.0018032111693173647,-0.005754291079938412,0.023812271654605865,0.27826765179634094,0.09397174417972565,0.026532305404543877,-0.005808536894619465,4.097251803614199e-06,0.000208562400075607,3.7161290645599365,10.0,0.0,7000.0,7000.0,7000.0,7000.0,0.229,32.766,1.319,32.766,2.824,2018.783203125,809.938720703125,29.077796936035156,,False,
1783704304.697323,2026-07-10T10:25:04,14247,20260710_102458,,,,,,arming,,,,,,,,,False,0.0021862012799829245,0.0020383980590850115,1.0001908540725708,-0.2327820509672165,-0.17225253582000732,0.44623231887817383,3.0,-4.0,47.0,27.0,0.027,-0.0013143467949703336,0.000525232229847461,0.026672115549445152,-0.0006643261294811964,-0.0018964584451168776,-0.004684963263571262,0.024544253945350647,0.2676924765110016,0.0903940200805664,0.026532305404543877,-0.005808536894619465,4.097251803614199e-06,0.000208562400075607,3.7161290645599365,10.0,0.0,7000.0,7000.0,7000.0,7000.0,0.229,32.766,1.319,32.766,2.824,2018.783203125,809.938720703125,29.077796936035156,,False,
1783704304.7074912,2026-07-10T10:25:04,14259,20260710_102458,,,,,,arming,,,,,,,,,False,0.003537565004080534,0.001895290450192988,1.001571536064148,0.08542866259813309,0.06763707101345062,0.3288954198360443,-3.0,5.0,62.0,27.0,0.027,-0.0015407821629196405,0.0005327763501554728,0.026591014117002487,-0.002596613485366106,-0.0010915398597717285,-0.0046575432643294334,0.024544253945350647,0.2676924765110016,0.0903940200805664,0.026532305404543877,-0.005808536894619465,4.097251803614199e-06,0.000208562400075607,3.7161290645599365,10.0,0.0,7000.0,7000.0,7000.0,7000.0,0.229,32.766,1.319,32.766,2.824,2018.783203125,809.938720703125,29.077796936035156,,False,
1783704304.7178202,2026-07-10T10:25:04,14267,20260710_102458,,,,,,arming,,,,,,,,,False,0.008004817180335522,0.002465825295075774,0.9979304075241089,0.0478154756128788,0.15672644972801208,-0.17842864990234375,2.0,-2.0,55.0,27.0,0.027,-0.0015407821629196405,0.0005327763501554728,0.026591014117002487,-0.002596613485366106,-0.0010915398597717285,-0.0046575432643294334,0.019540220499038696,0.27382397651672363,0.09184812754392624,0.026532305404543877,-0.005808536894619465,4.097251803614199e-06,0.000208562400075607,3.7161290645599365,10.0,0.0,7000.0,7000.0,7000.0,7000.0,0.229,32.766,1.319,32.766,2.824,2018.783203125,809.938720703125,29.077796936035156,,False,
1783704304.7279851,2026-07-10T10:25:04,14280,20260710_102458,,,,,,arming,,,,,,,,,False,0.002745309378951788,-0.0004300996952224523,0.9996111392974854,-0.13364839553833008,-0.15845535695552826,-0.05766139551997185,-1.0,2.0,72.0,27.0,0.027,-0.0015306270215660334,0.000309243390802294,0.026500089094042778,-0.002293368335813284,-0.0018284174147993326,-0.004689585417509079,0.02624126896262169,0.2740103006362915,0.09128512442111969,0.026532305404543877,-0.005808536894619465,4.097251803614199e-06,0.000208562400075607,3.7161290645599365,10.0,0.0,7000.0,7000.0,7000.0,7000.0,0.229,32.766,1.319,32.766,2.824,2018.783203125,809.938720703125,29.077796936035156,,False,
1783704304.7381454,2026-07-10T10:25:04,14287,20260710_102458,,,,,,arming,,,,,,,,,False,0.00404387479647994,-0.004105074796825647,1.0022927522659302,0.20305828750133514,-0.013026067987084389,0.3976946175098419,-1.0,-3.0,45.0,27.0,0.027,-0.0015306270215660334,0.000309243390802294,0.026500089094042778,-0.002293368335813284,-0.0018284174147993326,-0.004689585417509079,0.02624126896262169,0.2740103006362915,0.09128512442111969,0.026500089094042778,-0.004677723627537489,4.2278115870431066e-06,0.00021373167692217976,3.7266862392425537,10.0,0.0,7000.0,7000.0,7000.0,7000.0,0.229,32.766,1.342,32.766,2.833,2018.7230224609375,809.9442749023438,29.0856876373291,,False,
1783704304.7483509,2026-07-10T10:25:04,14300,20260710_102458,,,,,,arming,,,,,,,,,False,0.0034046140499413013,-0.001082866103388369,1.0010231733322144,-0.12374429404735565,-0.5462605953216553,-0.10358736664056778,-1.0,0.0,46.0,25.0,0.025,2.2300328339497355e-07,5.578863692790037e-06,0.02499990537762642,0.00014215132978279144,0.0010700940620154142,2.557879633968696e-05,-0.0004795742279384285,0.0022125535178929567,-0.0010002106428146362,0.026500089094042778,-0.004677723627537489,4.2278115870431066e-06,0.00021373167692217976,3.7266862392425537,10.0,0.0,7000.0,7000.0,7000.0,7000.0,0.229,32.766,1.342,32.766,2.833,2018.7230224609375,809.9442749023438,29.0856876373291,,False,
1783704304.75852,2026-07-10T10:25:04,14307,20260710_102458,,,,,,arming,,,,,,,,,False,0.008990238420665264,-0.0005564533057622612,1.0011898279190063,-0.5223830342292786,-0.21831895411014557,-0.4688960313796997,0.0,3.0,60.0,25.0,0.025,2.2300328339497355e-07,5.578863692790037e-06,0.02499990537762642,0.00014215132978279144,0.0010700940620154142,2.557879633968696e-05,-0.0004795742279384285,0.0022125535178929567,-0.0010002106428146362,0.026500089094042778,-0.004677723627537489,4.2278115870431066e-06,0.00021373167692217976,3.7266862392425537,10.0,0.0,7000.0,7000.0,7000.0,7000.0,0.229,32.766,1.342,32.766,2.833,2018.7230224609375,809.9442749023438,29.0856876373291,,False,
1783704304.7687469,2026-07-10T10:25:04,14320,20260710_102458,,,,,,arming,,,,,,,,,False,0.004381854552775621,-0.0006463942700065672,1.0008267164230347,-0.1677071750164032,-0.3065474033355713,0.08854974061250687,0.0,0.0,61.0,25.0,0.025,-6.96502102073282e-05,2.5151806767098606e-05,0.025001872330904007,-0.002123625483363867,0.0008994483505375683,0.00022174646437633783,-0.0037732336204499006,0.017427291721105576,0.001228226232342422,0.026500089094042778,-0.004677723627537489,4.2278115870431066e-06,0.00021373167692217976,3.7266862392425537,10.0,0.0,7000.0,7000.0,7000.0,7000.0,0.229,32.766,1.342,32.766,2.833,2018.7230224609375,809.9442749023438,29.0856876373291,,False,
1783704304.7789075,2026-07-10T10:25:04,14331,20260710_102458,,,,,,arming,,,,,,,,,False,0.002501262119039893,0.00084047915879637,1.0020266771316528,0.01745227351784706,0.05550294369459152,0.5818531513214111,0.0,0.0,54.0,25.0,0.025,-6.96502102073282e-05,2.5151806767098606e-05,0.025001872330904007,-0.002123625483363867,0.0008994483505375683,0.00022174646437633783,-0.0037732336204499006,0.017427291721105576,0.001228226232342422,0.025005126371979713,0.00043006546911783516,6.4004489104263484e-06,0.0001399998873239383,3.7266862392425537,10.0,0.0,7000.0,7000.0,7000.0,7000.0,0.229,32.766,1.342,32.766,2.833,2018.7230224609375,809.9442749023438,29.0856876373291,,False,
1783704304.7890654,2026-07-10T10:25:04,14340,20260710_102458,,,,,,arming,,,,,,,,,False,0.006921262945979834,-0.002679144497960806,1.0032727718353271,0.1326868087053299,-0.0208029355853796,0.26106318831443787,0.0,0.0,47.0,28.0,0.028,-0.00010579815716482699,4.575317143462598e-05,0.026534387841820717,-0.0012995214201509953,0.0008733827853575349,0.0015896022086963058,-0.004784262273460627,0.019499773159623146,-0.00519844563677907,0.025005126371979713,0.00043006546911783516,6.4004489104263484e-06,0.0001399998873239383,3.721407651901245,10.0,0.0,7000.0,7000.0,7000.0,7000.0,0.229,32.766,1.342,0.271,2.833,2018.7230224609375,809.9442749023438,29.0856876373291,,False,
1783704304.7992136,2026-07-10T10:25:04,14347,20260710_102458,,,,,,arming,,,,,,,,,False,0.003053372958675027,0.004551416262984276,0.999904215335846,-0.052147459238767624,0.17365805804729462,-1.0331343412399292,0.0,0.0,52.0,28.0,0.028,-0.00010579815716482699,4.575317143462598e-05,0.026534387841820717,-0.0012995214201509953,0.0008733827853575349,0.0015896022086963058,-0.004784262273460627,0.019499773159623146,-0.00519844563677907,0.025005126371979713,0.00043006546911783516,6.4004489104263484e-06,0.0001399998873239383,3.721407651901245,10.0,0.0,7000.0,7000.0,7000.0,7000.0,0.229,32.766,1.342,0.271,2.833,2018.7230224609375,809.9442749023438,29.0856876373291,,False,
1783704304.8093636,2026-07-10T10:25:04,14360,20260710_102458,,,,,,arming,,,,,,,,,False,0.0050230491906404495,0.0021813097409904003,1.0012812614440918,0.07433417439460754,-0.4098133444786072,-0.8697047233581543,0.0,0.0,61.0,28.0,0.028,-0.0001242063008248806,6.626872345805168e-05,0.026568908244371414,-0.0006140036857686937,0.0011916686780750751,0.0019289166666567326,-0.005495705641806126,0.02309047058224678,-0.00586428539827466,0.025005126371979713,0.00043006546911783516,6.4004489104263484e-06,0.0001399998873239383,3.721407651901245,10.0,0.0,7000.0,7000.0,7000.0,7000.0,0.229,32.766,1.342,0.271,2.833,2018.7230224609375,809.9442749023438,29.0856876373291,,False,
1783704304.819544,2026-07-10T10:25:04,14367,20260710_102458,,,,,,arming,,,,,,,,,False,0.0048582530580461025,-0.0025722263380885124,1.0044418573379517,0.48417648673057556,0.5770841240882874,0.349051833152771,0.0,0.0,56.0,28.0,0.028,-0.0001242063008248806,6.626872345805168e-05,0.026568908244371414,-0.0006140036857686937,0.0011916686780750751,0.0019289166666567326,-0.005495705641806126,0.02309047058224678,-0.00586428539827466,0.025005126371979713,0.00043006546911783516,6.4004489104263484e-06,0.0001399998873239383,3.721407651901245,10.0,0.0,7000.0,7000.0,7000.0,7000.0,0.229,32.766,1.342,0.271,2.833,2018.7230224609375,809.9442749023438,29.0856876373291,,False,
1783704304.8298383,2026-07-10T10:25:04,14382,20260710_102458,,,,,,arming,,,,,,,,,False,0.0005791916628368199,0.005843247286975384,1.0044137239456177,-0.2492726892232895,-0.27336934208869934,0.6840488314628601,3.0,-3.0,71.0,28.0,0.028,0.00022868739324621856,-0.00027253906591795385,0.026616301387548447,0.005566248670220375,-0.004152730572968721,0.002526217605918646,0.13782547414302826,-0.11608723551034927,-0.005273769143968821,0.026616301387548447,0.0025474766734987497,3.760621439141687e-06,0.00018857946270145476,3.7266862392425537,10.0,0.0,7000.0,7000.0,7000.0,7000.0,0.229,32.766,1.342,0.271,2.833,2018.7230224609375,809.9442749023438,29.0856876373291,,False,
1783704304.8400471,2026-07-10T10:25:04,14387,20260710_102458,,,,,,arming,,,,,,,,,False,0.0066085923463106155,-0.002616703975945711,0.9984527230262756,0.3326253294944763,0.07415232807397842,0.7384211421012878,-7.0,-1.0,46.0,28.0,0.028,0.00022868739324621856,-0.00027253906591795385,0.026616301387548447,0.005566248670220375,-0.004152730572968721,0.002526217605918646,0.13782547414302826,-0.11608723551034927,-0.005273769143968821,0.026616301387548447,0.0025474766734987497,3.760621439141687e-06,0.00018857946270145476,3.7266862392425537,10.0,0.0,7000.0,7000.0,7000.0,7000.0,0.227,32.766,1.289,0.271,2.833,2018.64111328125,809.9517211914062,29.097293853759766,,False,
1783704304.8502283,2026-07-10T10:25:04,14400,20260710_102458,,,,,,arming,,,,,,,,,False,-0.0010309867793694139,0.007190438453108072,0.9987071752548218,-0.13469888269901276,-0.031654246151447296,-0.30698156356811523,7.0,0.0,47.0,27.0,0.027,0.0004142445104662329,-0.00032394478330388665,0.026837224140763283,0.007583734579384327,-0.004271718207746744,0.0028967519756406546,0.16148021817207336,-0.1351621150970459,-0.00918519776314497,0.026616301387548447,0.0025474766734987497,3.760621439141687e-06,0.00018857946270145476,3.7266862392425537,10.0,0.0,7000.0,7000.0,7000.0,7000.0,0.227,32.766,1.289,0.271,2.833,2018.64111328125,809.9517211914062,29.097293853759766,,False,
1783704304.8603818,2026-07-10T10:25:04,14407,20260710_102458,,,,,,arming,,,,,,,,,False,0.006233897991478443,-0.0012033001985400915,1.0016568899154663,-0.304073691368103,0.03592902794480324,-0.4224615693092346,-2.0,3.0,49.0,27.0,0.027,0.0004142445104662329,-0.00032394478330388665,0.026837224140763283,0.007583734579384327,-0.004271718207746744,0.0028967519756406546,0.16148021817207336,-0.1351621150970459,-0.00918519776314497,0.026616301387548447,0.0025474766734987497,3.760621439141687e-06,0.00018857946270145476,3.7266862392425537,10.0,0.0,7000.0,7000.0,7000.0,7000.0,0.227,32.766,1.289,0.271,2.833,2018.64111328125,809.9517211914062,29.097293853759766,,False,
1783704304.8705287,2026-07-10T10:25:04,14420,20260710_102458,,,,,,arming,,,,,,,,,False,0.006880131084471941,-0.0007443939684890211,1.0054348707199097,0.24058082699775696,0.24388767778873444,0.003677055472508073,0.0,0.0,65.0,27.0,0.027,3.825789463007823e-06,-3.175828533130698e-05,0.02691284753382206,0.0021416302770376205,-0.00015043909661471844,0.0036169507075101137,0.04761691391468048,0.03404509276151657,-0.007802867796272039,0.026616301387548447,0.0025474766734987497,3.760621439141687e-06,0.00018857946270145476,3.7266862392425537,10.0,0.0,7000.0,7000.0,7000.0,7000.0,0.227,32.766,1.289,0.271,2.833,2018.64111328125,809.9517211914062,29.097293853759766,,False,
1783704304.880682,2026-07-10T10:25:04,14432,20260710_102458,,,,,,arming,,,,,,,,,False,-0.0007526719127781689,-0.0005533424555324018,1.0018657445907593,-0.22293400764465332,-0.49217137694358826,0.6392797231674194,0.0,0.0,60.0,27.0,0.027,3.825789463007823e-06,-3.175828533130698e-05,0.02691284753382206,0.0021416302770376205,-0.00015043909661471844,0.0036169507075101137,0.04761691391468048,0.03404509276151657,-0.007802867796272039,0.026949459686875343,0.0037050030659884214,3.3435519526392454e-06,0.00022416454157792032,3.721407651901245,10.0,0.0,7000.0,7000.0,7000.0,7000.0,0.227,32.766,1.289,0.271,2.833,2018.64111328125,809.9517211914062,29.097293853759766,,False,
1783704304.8908374,2026-07-10T10:25:04,14440,20260710_102458,,,,,,arming,,,,,,,,,False,0.007638255134224892,-0.004947868641465902,1.0000718832015991,0.12518715858459473,0.6282598972320557,0.5869458317756653,2.0,-2.0,47.0,27.0,0.027,0.00045617317664436996,-0.000457956048194319,0.027003690600395203,0.007246123161166906,-0.005341547541320324,0.0037028025835752487,0.17000138759613037,-0.08507788181304932,-0.009334675036370754,0.026949459686875343,0.0037050030659884214,3.3435519526392454e-06,0.00022416454157792032,3.721407651901245,10.0,0.0,7000.0,7000.0,7000.0,7000.0,0.227,32.766,1.289,0.267,2.833,2018.64111328125,809.9517211914062,29.097293853759766,,False,
1783704304.9009988,2026-07-10T10:25:04,14447,20260710_102458,,,,,,arming,,,,,,,,,False,-0.001240738551132381,0.003202620428055525,1.0002083778381348,0.23223619163036346,-0.4717000722885132,-0.11227848380804062,-3.0,-5.0,53.0,27.0,0.027,0.00045617317664436996,-0.000457956048194319,0.027003690600395203,0.007246123161166906,-0.005341547541320324,0.0037028025835752487,0.17000138759613037,-0.08507788181304932,-0.009334675036370754,0.026949459686875343,0.0037050030659884214,3.3435519526392454e-06,0.00022416454157792032,3.721407651901245,10.0,0.0,7000.0,7000.0,7000.0,7000.0,0.227,32.766,1.289,0.267,2.833,2018.64111328125,809.9517211914062,29.097293853759766,,False,
1783704304.91115,2026-07-10T10:25:04,14460,20260710_102458,,,,,,arming,,,,,,,,,False,0.010402249172329903,-0.0032141730189323425,0.9961066246032715,0.19605396687984467,0.2766117453575134,-0.2678041160106659,0.0,7.0,61.0,27.0,0.027,-1.3105849575367756e-05,0.00018436764366924763,0.027119768783450127,0.0013143328251317143,0.0019573343452066183,0.004081081133335829,-0.016222644597291946,0.09671621769666672,-0.011711636558175087,0.026949459686875343,0.0037050030659884214,3.3435519526392454e-06,0.00022416454157792032,3.721407651901245,10.0,0.0,7000.0,7000.0,7000.0,7000.0,0.227,32.766,1.289,0.267,2.833,2018.64111328125,809.9517211914062,29.097293853759766,,False,
1783704304.9213028,2026-07-10T10:25:04,14474,20260710_102458,,,,,,arming,,,,,,,,,False,0.002638672012835741,-0.004483641590923071,1.0017398595809937,0.25897639989852905,-0.5294979214668274,0.20242899656295776,0.0,-1.0,54.0,27.0,0.027,-1.3105849575367756e-05,0.00018436764366924763,0.027119768783450127,0.0013143328251317143,0.0019573343452066183,0.004081081133335829,-0.016222644597291946,0.09671621769666672,-0.011711636558175087,0.026949459686875343,0.0037050030659884214,3.3435519526392454e-06,0.00022416454157792032,3.721407651901245,10.0,0.0,7000.0,7000.0,7000.0,7000.0,0.227,32.766,1.289,0.267,2.833,2018.64111328125,809.9517211914062,29.097293853759766,,False,
1783704304.9314537,2026-07-10T10:25:04,14482,20260710_102458,,,,,,arming,,,,,,,,,False,0.002638672012835741,-0.004483641590923071,1.0017398595809937,0.25897639989852905,-0.5294979214668274,0.20242899656295776,0.0,1.0,68.0,27.0,0.027,-2.4579894670750946e-05,0.00017853069584816694,0.02720159851014614,0.0012880072463303804,0.0015581032494083047,0.004019980784505606,-0.004447327461093664,0.11031970381736755,-0.009854297153651714,0.02720159851014614,0.004017623141407967,3.730261596501805e-06,0.0002489766338840127,3.7266862392425537,10.0,0.0,7000.0,7000.0,7000.0,7000.0,0.227,32.766,1.289,0.267,2.833,2018.64111328125,809.9517211914062,29.097293853759766,,False,
1783704304.941605,2026-07-10T10:25:04,14487,20260710_102458,,,,,,arming,,,,,,,,,False,0.007633308880031109,-0.0050307586789131165,1.002122163772583,-0.07960820943117142,-0.04532724991440773,0.646163821220398,-4.0,-4.0,48.0,27.0,0.027,-2.4579894670750946e-05,0.00017853069584816694,0.02720159851014614,0.0012880072463303804,0.0015581032494083047,0.004019980784505606,-0.004447327461093664,0.11031970381736755,-0.009854297153651714,0.02720159851014614,0.004017623141407967,3.730261596501805e-06,0.0002489766338840127,3.7266862392425537,10.0,0.0,7000.0,7000.0,7000.0,7000.0,0.23,32.766,1.322,0.267,2.825,2018.69580078125,809.9465942382812,29.104782104492188,,False,
1783704304.951771,2026-07-10T10:25:04,14504,20260710_102458,,,,,,arming,,,,,,,,,False,0.011122302152216434,-0.00015922356396913528,0.9980691075325012,-0.15029464662075043,0.49856284260749817,0.07240214943885803,7.0,1.0,44.0,29.0,0.029,0.0006507994257844985,-0.0005518659017980099,0.02805039845407009,0.007683964446187019,-0.006497863680124283,0.008211852982640266,0.1679980754852295,-0.013751260936260223,-0.01300895307213068,0.02720159851014614,0.004017623141407967,3.730261596501805e-06,0.0002489766338840127,3.7266862392425537,10.0,0.0,7000.0,7000.0,7000.0,7000.0,0.23,32.766,1.322,0.267,2.825,2018.69580078125,809.9465942382812,29.104782104492188,,False,
1783704304.9619308,2026-07-10T10:25:04,14514,20260710_102458,,,,,,arming,,,,,,,,,False,-0.004390438087284565,0.0027563658077269793,1.0003395080566406,-0.10643867403268814,-0.10049552470445633,-0.8062827587127686,1.0,0.0,52.0,29.0,0.029,0.0006507994257844985,-0.0005518659017980099,0.02805039845407009,0.007683964446187019,-0.006497863680124283,0.008211852982640266,0.1679980754852295,-0.013751260936260223,-0.01300895307213068,0.02720159851014614,0.004017623141407967,3.730261596501805e-06,0.0002489766338840127,3.7266862392425537,10.0,0.0,7000.0,7000.0,7000.0,7000.0,0.23,32.766,1.322,0.267,2.825,2018.69580078125,809.9465942382812,29.104782104492188,,False,
1783704304.9720993,2026-07-10T10:25:04,14524,20260710_102458,,,,,,arming,,,,,,,,,False,0.01037027221173048,-0.0014077848754823208,1.0038188695907593,-0.05693935975432396,0.05930332839488983,-0.7145239114761353,-2.0,4.0,61.0,29.0,0.029,-0.00031484916689805686,-0.0002816755441017449,0.028230560943484306,-0.0014449383597820997,-0.0031306587625294924,0.008532192558050156,0.08416683226823807,0.213259756565094,-0.014950103126466274,0.02720159851014614,0.004017623141407967,3.730261596501805e-06,0.0002489766338840127,3.7266862392425537,10.0,0.0,7000.0,7000.0,7000.0,7000.0,0.23,32.766,1.322,0.267,2.825,2018.69580078125,809.9465942382812,29.104782104492188,,False,
1783704304.9822521,2026-07-10T10:25:04,14534,20260710_102458,,,,,,arming,,,,,,,,,False,0.01037027221173048,-0.0014077848754823208,1.0038188695907593,-0.05693935975432396,0.05930332839488983,-0.7145239114761353,-2.0,-4.0,61.0,29.0,0.029,-0.00031484916689805686,-0.0002816755441017449,0.028230560943484306,-0.0014449383597820997,-0.0031306587625294924,0.008532192558050156,0.08416683226823807,0.213259756565094,-0.014950103126466274,0.028328003361821175,0.008782673627138138,3.996510713477619e-06,0.00024465261958539486,3.721407651901245,10.0,0.0,7000.0,7000.0,7000.0,7000.0,0.23,32.766,1.322,0.27,2.825,2018.69580078125,809.9465942382812,29.104782104492188,,False,
1783704304.9924083,2026-07-10T10:25:04,14544,20260710_102458,,,,,,arming,,,,,,,,,False,0.0015414404915645719,-0.0009921861346811056,1.0014311075210571,-0.039833925664424896,-0.46715274453163147,0.4243994355201721,3.0,0.0,48.0,27.0,0.027,0.0006351452320814133,-0.000527562340721488,0.027871565893292427,0.007188270799815655,-0.0052023702301084995,0.0060678343288600445,0.12164882570505142,0.040403950959444046,-0.012987087480723858,0.028328003361821175,0.008782673627138138,3.996510713477619e-06,0.00024465261958539486,3.721407651901245,10.0,0.0,7000.0,7000.0,7000.0,7000.0,0.23,32.766,1.322,0.27,2.825,2018.69580078125,809.9465942382812,29.104782104492188,,False,
1783704305.0025897,2026-07-10T10:25:05,14554,20260710_102458,,,,,,arming,,,,,,,,,False,0.010591075755655766,-0.0023230803199112415,1.0032343864440918,-0.14935553073883057,0.3901439607143402,0.7350794076919556,1.0,0.0,60.0,27.0,0.027,0.0006351452320814133,-0.000527562340721488,0.027871565893292427,0.007188270799815655,-0.0052023702301084995,0.0060678343288600445,0.12164882570505142,0.040403950959444046,-0.012987087480723858,0.028328003361821175,0.008782673627138138,3.996510713477619e-06,0.00024465261958539486,3.721407651901245,10.0,0.0,7000.0,7000.0,7000.0,7000.0,0.23,32.766,1.322,0.27,2.825,2018.69580078125,809.9465942382812,29.104782104492188,,False,
1783704305.0127513,2026-07-10T10:25:05,14564,20260710_102458,,,,,,arming,,,,,,,,,False,-0.0005058101378381252,0.0044110240414738655,0.9994162321090698,0.10610288381576538,-0.2916422486305237,0.13565963506698608,-2.0,4.0,55.0,27.0,0.027,-0.00036673247814178467,-0.00025977028417401016,0.02800515666604042,-0.0017952047055587173,-0.0024412786588072777,0.006475450005382299,0.054467953741550446,0.23806601762771606,-0.013331365771591663,0.028328003361821175,0.008782673627138138,3.996510713477619e-06,0.00024465261958539486,3.721407651901245,10.0,0.0,7000.0,7000.0,7000.0,7000.0,0.23,32.766,1.322,0.27,2.825,2018.69580078125,809.9465942382812,29.104782104492188,,False,
1783704305.0229177,2026-07-10T10:25:05,14574,20260710_102458,,,,,,arming,,,,,,,,,False,0.011700257658958435,-0.0023455671034753323,1.0008213520050049,0.141156867146492,0.030231637880206108,-0.18675459921360016,-1.0,0.0,60.0,27.0,0.027,-0.00036673247814178467,-0.00025977028417401016,0.02800515666604042,-0.0017952047055587173,-0.0024412786588072777,0.006475450005382299,0.054467953741550446,0.23806601762771606,-0.013331365771591663,0.028328003361821175,0.008782673627138138,3.996510713477619e-06,0.00024465261958539486,3.721407651901245,10.0,0.0,7000.0,7000.0,7000.0,7000.0,0.23,32.766,1.322,0.27,2.825,2018.69580078125,809.9465942382812,29.104782104492188,,False,
1783704305.0331025,2026-07-10T10:25:05,14584,20260710_102458,,,,,,arming,,,,,,,,,False,0.011700257658958435,-0.0023455671034753323,1.0008213520050049,0.141156867146492,0.030231637880206108,-0.18675459921360016,-2.0,0.0,68.0,27.0,0.027,-0.00036384412669576705,0.0004802849143743515,0.02813454158604145,-0.0012651404831558466,0.004052361939102411,0.006551864556968212,-0.06968371570110321,0.233082115650177,-0.014057985506951809,0.02813454158604145,0.00656189676374197,4.376478955236962e-06,0.0002420674281893298,3.7266862392425537,10.0,0.0,7000.0,7000.0,7000.0,7000.0,0.23,32.766,1.306,0.27,2.839,2018.739501953125,809.9430541992188,29.107362747192383,,False,
1783704305.0432613,2026-07-10T10:25:05,14594,20260710_102458,,,,,,arming,,,,,,,,,False,0.01049927156418562,3.93406480725389e-05,0.9995050430297852,-0.3074312210083008,-0.08835317194461823,-0.36499741673469543,4.0,-3.0,52.0,27.0,0.027,-0.00036384412669576705,0.0004802849143743515,0.02813454158604145,-0.0012651404831558466,0.004052361939102411,0.006551864556968212,-0.06968371570110321,0.233082115650177,-0.014057985506951809,0.02813454158604145,0.00656189676374197,4.376478955236962e-06,0.0002420674281893298,3.7266862392425537,10.0,0.0,7000.0,7000.0,7000.0,7000.0,0.23,32.766,1.306,0.27,2.839,2018.739501953125,809.9430541992188,29.107362747192383,,False,
1783704305.0534134,2026-07-10T10:25:05,14604,20260710_102458,,,,,,arming,,,,,,,,,False,0.00272403284907341,-0.002865935442969203,1.0028523206710815,-0.013780162669718266,0.23378252983093262,-0.3223874866962433,-3.0,-1.0,50.0,28.0,0.028,0.0006131738191470504,0.00024181432672776282,0.028187889605760574,0.0064137703739106655,0.0018769727321341634,0.006190545856952667,-0.030948996543884277,0.08855697512626648,-0.014413564465939999,0.02813454158604145,0.00656189676374197,4.376478955236962e-06,0.0002420674281893298,3.7266862392425537,10.0,0.0,7000.0,7000.0,7000.0,7000.0,0.23,32.766,1.306,0.27,2.839,2018.739501953125,809.9430541992188,29.107362747192383,,False,
1783704305.0635712,2026-07-10T10:25:05,14614,20260710_102458,,,,,,arming,,,,,,,,,False,0.007636742200702429,0.0016908973921090364,0.9974268674850464,-0.007607991807162762,-0.2251153141260147,0.00983406137675047,0.0,4.0,55.0,28.0,0.028,0.0006131738191470504,0.00024181432672776282,0.028187889605760574,0.0064137703739106655,0.0018769727321341634,0.006190545856952667,-0.030948996543884277,0.08855697512626648,-0.014413564465939999,0.02813454158604145,0.00656189676374197,4.376478955236962e-06,0.0002420674281893298,3.7266862392425537,10.0,0.0,7000.0,7000.0,7000.0,7000.0,0.23,32.766,1.306,0.27,2.839,2018.739501953125,809.9430541992188,29.107362747192383,,False,
1783704305.0737846,2026-07-10T10:25:05,14627,20260710_102458,,,,,,arming,,,,,,,,,False,0.007906096056103706,-0.0050776186399161816,0.9997779726982117,0.07242331653833389,0.11521498113870621,-0.0037514707073569298,4.0,0.0,56.0,28.0,0.028,0.0003584410878829658,0.0012307338183745742,0.02832416258752346,0.0043104300275444984,0.009037218987941742,0.006394540891051292,-0.16491617262363434,0.13502183556556702,-0.012182896956801414,0.02813454158604145,0.00656189676374197,4.376478955236962e-06,0.0002420674281893298,3.7266862392425537,10.0,0.0,7000.0,7000.0,7000.0,7000.0,0.23,32.766,1.306,0.27,2.839,2018.739501953125,809.9430541992188,29.107362747192383,,False,
1783704305.0839493,2026-07-10T10:25:05,14637,20260710_102458,,,,,,arming,,,,,,,,,False,0.002376324264332652,0.004204460419714451,1.0011707544326782,-0.10426972806453705,0.025829104706645012,0.22550581395626068,1.0,2.0,65.0,30.0,0.03,0.0003584410878829658,0.0012307338183745742,0.02832416258752346,0.0043104300275444984,0.009037218987941742,0.006394540891051292,-0.16491617262363434,0.13502183556556702,-0.012182896956801414,0.028407391160726547,0.006419534794986248,4.295302005630219e-06,0.00022461122716777027,3.721407651901245,10.0,0.0,7000.0,7000.0,7000.0,7000.0,0.23,32.766,1.306,0.273,2.839,2018.739501953125,809.9430541992188,29.107362747192383,,False,
1783704305.0941105,2026-07-10T10:25:05,14647,20260710_102458,,,,,,arming,,,,,,,,,False,0.01247185468673706,-0.002236228436231613,1.000928282737732,0.11685071885585785,0.12507110834121704,-0.11518163979053497,-1.0,0.0,57.0,30.0,0.03,-0.00015149489627219737,-2.587836206657812e-05,0.02915695495903492,0.000522579241078347,-0.0011067898012697697,0.009964073076844215,0.017482759431004524,0.21323317289352417,-0.013218249194324017,0.028407391160726547,0.006419534794986248,4.295302005630219e-06,0.00022461122716777027,3.721407651901245,10.0,0.0,7000.0,7000.0,7000.0,7000.0,0.23,32.766,1.306,0.273,2.839,2018.739501953125,809.9430541992188,29.107362747192383,,False,
1783704305.1042657,2026-07-10T10:25:05,14657,20260710_102458,,,,,,arming,,,,,,,,,False,-0.0004829844110645354,0.0031054336577653885,0.9996944069862366,0.04365159198641777,-0.7280493378639221,-0.32968875765800476,1.0,1.0,59.0,30.0,0.03,-0.00015149489627219737,-2.587836206657812e-05,0.02915695495903492,0.000522579241078347,-0.0011067898012697697,0.009964073076844215,0.017482759431004524,0.21323317289352417,-0.013218249194324017,0.028407391160726547,0.006419534794986248,4.295302005630219e-06,0.00022461122716777027,3.721407651901245,10.0,0.0,7000.0,7000.0,7000.0,7000.0,0.23,32.766,1.306,0.273,2.839,2018.739501953125,809.9430541992188,29.107362747192383,,False,
1783704305.114424,2026-07-10T10:25:05,14667,20260710_102458,,,,,,arming,,,,,,,,,False,0.00810559093952179,-0.005214252509176731,0.9969072937965393,-0.32174623012542725,0.001986720832064748,-0.2698536217212677,3.0,-1.0,51.0,30.0,0.03,-0.00041191247873939574,-3.0194289138307795e-05,0.029359640553593636,-0.0009238377679139376,-0.0010588807053864002,0.010196940042078495,0.018297355622053146,0.25062295794487,-0.013332082889974117,0.028407391160726547,0.006419534794986248,4.295302005630219e-06,0.00022461122716777027,3.721407651901245,10.0,0.0,7000.0,7000.0,7000.0,7000.0,0.23,32.766,1.306,0.273,2.839,2018.739501953125,809.9430541992188,29.107362747192383,,False,
1783704305.1245797,2026-07-10T10:25:05,14677,20260710_102458,,,,,,arming,,,,,,,,,False,0.005152541678398848,-0.0001940467773238197,0.998171865940094,0.08986271917819977,0.22637952864170074,-0.22518886625766754,-3.0,1.0,67.0,30.0,0.03,-0.00041191247873939574,-3.0194289138307795e-05,0.029359640553593636,-0.0009238377679139376,-0.0010588807053864002,0.010196940042078495,0.018297355622053146,0.25062295794487,-0.013332082889974117,0.028407391160726547,0.006419534794986248,4.295302005630219e-06,0.00022461122716777027,3.721407651901245,10.0,0.0,7000.0,7000.0,7000.0,7000.0,0.23,32.766,1.306,0.273,2.839,2018.739501953125,809.9430541992188,29.107362747192383,,False,
1783704305.134752,2026-07-10T10:25:05,14687,20260710_102458,,,,,,arming,,,,,,,,,False,0.005618298426270485,6.484931873274036e-06,1.0057293176651,-0.22202718257904053,0.07306206226348877,0.12779167294502258,0.0,-3.0,50.0,30.0,0.03,-0.000410000589909032,-1.2731859897030517e-05,0.02957066334784031,-0.0007537952624261379,-0.001007500453852117,0.009994293563067913,0.008301381953060627,0.24925749003887177,-0.010889858938753605,0.02957066334784031,0.00999764259904623,4.413143869896885e-06,0.00022214403725229204,3.7266862392425537,10.0,0.0,7000.0,7000.0,7000.0,7000.0,0.228,32.766,1.291,0.273,2.844,2018.6356201171875,809.9522705078125,29.11060333251953,,False,
1783704305.1449049,2026-07-10T10:25:05,14697,20260710_102458,,,,,,arming,,,,,,,,,False,0.003695116378366947,-0.003659226465970278,1.0011520385742188,0.3012333810329437,0.1963828057050705,0.7046999335289001,2.0,0.0,51.0,28.0,0.028,-0.000410000589909032,-1.2731859897030517e-05,0.02957066334784031,-0.0007537952624261379,-0.001007500453852117,0.009994293563067913,0.008301381953060627,0.24925749003887177,-0.010889858938753605,0.02957066334784031,0.00999764259904623,4.413143869896885e-06,0.00022214403725229204,3.7266862392425537,10.0,0.0,7000.0,7000.0,7000.0,7000.0,0.228,32.766,1.291,0.273,2.844,2018.6356201171875,809.9522705078125,29.11060333251953,,False,
1783704305.1550672,2026-07-10T10:25:05,14707,20260710_102458,,,,,,arming,,,,,,,,,False,0.0011077621020376682,0.004626426380127668,1.0004775524139404,0.0030650717671960592,0.02830434776842594,0.44831612706184387,0.0,0.0,56.0,28.0,0.028,0.00033035484375432134,-0.0005084385047666728,0.02900185063481331,0.004337775055319071,-0.004280331544578075,0.006413144525140524,0.06120255962014198,0.17004016041755676,-0.010175746865570545,0.02957066334784031,0.00999764259904623,4.413143869896885e-06,0.00022214403725229204,3.7266862392425537,10.0,0.0,7000.0,7000.0,7000.0,7000.0,0.228,32.766,1.291,0.273,2.844,2018.6356201171875,809.9522705078125,29.11060333251953,,False,
1783704305.165221,2026-07-10T10:25:05,14717,20260710_102458,,,,,,arming,,,,,,,,,False,0.008182504214346409,-0.007395334076136351,0.9953126907348633,0.2830665409564972,-0.0888814777135849,0.3904808461666107,-2.0,3.0,61.0,28.0,0.028,0.00033035484375432134,-0.0005084385047666728,0.02900185063481331,0.004337775055319071,-0.004280331544578075,0.006413144525140524,0.06120255962014198,0.17004016041755676,-0.010175746865570545,0.02957066334784031,0.00999764259904623,4.413143869896885e-06,0.00022214403725229204,3.7266862392425537,10.0,0.0,7000.0,7000.0,7000.0,7000.0,0.228,32.766,1.291,0.273,2.844,2018.6356201171875,809.9522705078125,29.11060333251953,,False,
1783704305.1753724,2026-07-10T10:25:05,14727,20260710_102458,,,,,,arming,,,,,,,,,False,-0.00012569753744173795,0.0022185661364346743,0.9979494214057922,0.017561079934239388,-0.04386020451784134,-0.3004315197467804,-2.0,0.0,57.0,28.0,0.028,-0.0004420493496581912,-1.1018693840014748e-05,0.029138656333088875,-0.0012030461803078651,-0.0004782477917615324,0.006605309899896383,0.0009937073336914182,0.25752943754196167,-0.010128617286682129,0.02957066334784031,0.00999764259904623,4.413143869896885e-06,0.00022214403725229204,3.7266862392425537,10.0,0.0,7000.0,7000.0,7000.0,7000.0,0.228,32.766,1.291,0.273,2.844,2018.6356201171875,809.9522705078125,29.11060333251953,,False,
1783704305.1855264,2026-07-10T10:25:05,14737,20260710_102458,,,,,,arming,,,,,,,,,False,0.004283257760107517,-0.0014802556252107024,0.9997109174728394,-0.044348329305648804,-0.16010348498821259,-0.34686896204948425,4.0,-2.0,70.0,26.0,0.026,-0.0004420493496581912,-1.1018693840014748e-05,0.029138656333088875,-0.0012030461803078651,-0.0004782477917615324,0.006605309899896383,0.0009937073336914182,0.25752943754196167,-0.010128617286682129,0.029203400015830994,0.006346468348056078,4.2132564885832835e-06,0.00021151464898139238,3.7266862392425537,10.0,0.0,7000.0,7000.0,7000.0,7000.0,0.228,32.766,1.291,0.27,2.844,2018.6356201171875,809.9522705078125,29.11060333251953,,False,
1783704305.1956975,2026-07-10T10:25:05,14747,20260710_102458,,,,,,arming,,,,,,,,,False,0.005060231778770685,0.004516854882240295,1.0005701780319214,0.22880670428276062,0.16887153685092926,-0.7904929518699646,-2.0,2.0,61.0,26.0,0.026,8.520559640601277e-05,-0.0005402096430771053,0.027915790677070618,0.002213072730228305,-0.004022968467324972,-0.00043313554488122463,0.05365407466888428,0.20668324828147888,-0.012046043761074543,0.029203400015830994,0.006346468348056078,4.2132564885832835e-06,0.00021151464898139238,3.7266862392425537,10.0,0.0,7000.0,7000.0,7000.0,7000.0,0.228,32.766,1.291,0.27,2.844,2018.6356201171875,809.9522705078125,29.11060333251953,,False,
1783704305.205959,2026-07-10T10:25:05,14759,20260710_102458,,,,,,arming,,,,,,,,,False,0.006142228376120329,0.001666029216721654,1.0025051832199097,-0.08337417244911194,-0.20202971994876862,-0.567347526550293,0.0,0.0,57.0,26.0,0.026,-0.0004537383792921901,-1.2031092410325073e-05,0.02791084349155426,-0.0012896801345050335,-1.3471621059579775e-05,-0.0002593124518170953,0.05365407466888428,0.20668324828147888,-0.012046043761074543,0.029203400015830994,0.006346468348056078,4.2132564885832835e-06,0.00021151464898139238,3.7266862392425537,10.0,0.0,7000.0,7000.0,7000.0,7000.0,0.228,32.766,1.291,0.27,2.844,2018.6356201171875,809.9522705078125,29.11060333251953,,False,
1783704305.2161398,2026-07-10T10:25:05,14767,20260710_102458,,,,,,arming,,,,,,,,,False,0.008244497701525688,-0.0006413342780433595,1.0001777410507202,0.3203527331352234,0.3890915811061859,-0.003042299533262849,2.0,-3.0,60.0,26.0,0.026,-0.0004537383792921901,-1.2031092410325073e-05,0.02791084349155426,-0.0012896801345050335,-1.3471621059579775e-05,-0.0002593124518170953,-0.0006324039422906935,0.26061198115348816,-0.01140945591032505,0.029203400015830994,0.006346468348056078,4.2132564885832835e-06,0.00021151464898139238,3.7266862392425537,10.0,0.0,7000.0,7000.0,7000.0,7000.0,0.228,32.766,1.291,0.27,2.844,2018.6356201171875,809.9522705078125,29.11060333251953,,False,
1783704305.2263033,2026-07-10T10:25:05,14779,20260710_102458,,,,,,arming,,,,,,,,,False,0.004516554530709982,0.0018557371804490685,1.0009682178497314,-0.034450963139534,-0.1823408454656601,0.3008304536342621,-1.0,3.0,64.0,26.0,0.026,-0.0004507756675593555,-0.0002879336825571954,0.02791900373995304,-0.0010204953141510487,-0.0017401851946488023,-2.1685122192138806e-05,-0.0006324039422906935,0.26061198115348816,-0.01140945591032505,0.029203400015830994,0.006346468348056078,4.2132564885832835e-06,0.00021151464898139238,3.7266862392425537,10.0,0.0,7000.0,7000.0,7000.0,7000.0,0.228,32.766,1.291,0.27,2.844,2018.6356201171875,809.9522705078125,29.11060333251953,,False,
1783704305.2364624,2026-07-10T10:25:05,14787,20260710_102458,,,,,,arming,,,,,,,,,False,0.008121851831674576,-0.001005959347821772,1.0010775327682495,0.05735621601343155,0.2982305884361267,0.6439619660377502,-3.0,-8.0,44.0,26.0,0.026,-0.0004507756675593555,-0.0002879336825571954,0.02791900373995304,-0.0010204953141510487,-0.0017401851946488023,-2.1685122192138806e-05,0.021014641970396042,0.2596696615219116,-0.009826130233705044,0.02791900373995304,-1.6422993212472647e-05,4.296255610825028e-06,0.00021444124286063015,3.7266862392425537,10.0,0.0,7000.0,7000.0,7000.0,7000.0,0.23,32.766,1.305,0.27,2.846,2018.6192626953125,809.9536743164062,29.1118106842041,,False,
1783704305.2466688,2026-07-10T10:25:05,14800,20260710_102458,,,,,,arming,,,,,,,,,False,0.0012554373824968934,-0.0006067798240110278,0.9975723028182983,-0.11775694787502289,-0.589503824710846,0.07256098836660385,1.0,4.0,47.0,27.0,0.027,0.0006162107456475496,0.00025802056188695133,0.02752855233848095,0.0054579912684857845,0.001621177070774138,-0.0018628407269716263,-0.0239016842097044,0.17687258124351501,-0.009828348644077778,0.02791900373995304,-1.6422993212472647e-05,4.296255610825028e-06,0.00021444124286063015,3.7266862392425537,10.0,0.0,7000.0,7000.0,7000.0,7000.0,0.23,32.766,1.305,0.27,2.846,2018.6192626953125,809.9536743164062,29.1118106842041,,False,
1783704305.2568748,2026-07-10T10:25:05,14807,20260710_102458,,,,,,arming,,,,,,,,,False,0.006161621306091547,-0.0031111130956560373,0.9979908466339111,0.1631118357181549,0.29954734444618225,-0.19854113459587097,4.0,0.0,61.0,27.0,0.027,0.0006162107456475496,0.00025802056188695133,0.02752855233848095,0.0054579912684857845,0.001621177070774138,-0.0018628407269716263,-0.0239016842097044,0.17687258124351501,-0.009828348644077778,0.02791900373995304,-1.6422993212472647e-05,4.296255610825028e-06,0.00021444124286063015,3.7266862392425537,10.0,0.0,7000.0,7000.0,7000.0,7000.0,0.23,32.766,1.305,0.27,2.846,2018.6192626953125,809.9536743164062,29.1118106842041,,False,
1783704305.2670686,2026-07-10T10:25:05,14820,20260710_102458,,,,,,arming,,,,,,,,,False,0.0008800664800219238,0.0038202761206775904,0.9982702136039734,-0.14822924137115479,-0.21454110741615295,-0.5160146951675415,-8.0,0.0,64.0,27.0,0.027,0.0005899900570511818,0.0013245955342426896,0.027508612722158432,0.004789763130247593,0.008028283715248108,-0.0020627512130886316,-0.10814017057418823,0.18915465474128723,-0.01228677574545145,0.02791900373995304,-1.6422993212472647e-05,4.296255610825028e-06,0.00021444124286063015,3.7266862392425537,10.0,0.0,7000.0,7000.0,7000.0,7000.0,0.23,32.766,1.305,0.27,2.846,2018.6192626953125,809.9536743164062,29.1118106842041,,False,
1783704305.277254,2026-07-10T10:25:05,14827,20260710_102458,,,,,,arming,,,,,,,,,False,0.008206375874578953,0.0004407274827826768,1.0000892877578735,0.03220461681485176,0.42106893658638,0.003486397909000516,0.0,-1.0,58.0,27.0,0.027,0.0005899900570511818,0.0013245955342426896,0.027508612722158432,0.004789763130247593,0.008028283715248108,-0.0020627512130886316,-0.10814017057418823,0.18915465474128723,-0.01228677574545145,0.02791900373995304,-1.6422993212472647e-05,4.296255610825028e-06,0.00021444124286063015,3.7266862392425537,10.0,0.0,7000.0,7000.0,7000.0,7000.0,0.23,32.766,1.305,0.27,2.846,2018.6192626953125,809.9536743164062,29.1118106842041,,False,
