pc_time_s,pc_time_iso,cf_time_ms,session_id,motif_id,motif_type,motif_phase,rep_index,motif_param_json,flight_phase,cmd_vx_m_s,cmd_vy_m_s,cmd_yaw_rate_deg_s,cmd_height_m,cmd_vx_raw_m_s,cmd_vy_raw_m_s,cmd_yaw_rate_raw_deg_s,cmd_height_raw_m,safety_override_active,acc_x_g,acc_y_g,acc_z_g,gyro_x_dps,gyro_y_dps,gyro_z_dps,flow_delta_x_px,flow_delta_y_px,flow_squal,zrange_mm,zrange_m,x_m,y_m,z_m,vx_m_s,vy_m_s,vz_m_s,roll_deg,pitch_deg,yaw_deg,kalman_state_z_m,kalman_state_pz,kalman_var_z,kalman_var_pz,battery_v,battery_level_pct,pm_state,motor_m1,motor_m2,motor_m3,motor_m4,range_front_m,range_back_m,range_left_m,range_right_m,range_up_m,baro_asl_m,baro_pressure_hpa,baro_temp_c,safety_flag,should_land,event
1783642898.2060792,2026-07-09T17:21:38,,20260709_172133,,,,,,ground_idle,,,,,,,,,False,,,,,,,,,,,,,,,,,,,,,,,,,,,,,,,,,,,,,,,,,False,
1783642898.2164357,2026-07-09T17:21:38,720463,20260709_172133,,,,,,ground_idle,,,,,,,,,False,-0.005436608102172613,-0.016993386670947075,0.9972821474075317,0.18244735896587372,-0.3039267361164093,0.11721412092447281,,,,,,,,,,,,,,,,,,,,,,,,,,,,,,,,,,,False,
1783642898.2265801,2026-07-09T17:21:38,720473,20260709_172133,,,,,,ground_idle,,,,,,,,,False,-0.00362746836617589,-0.01655280962586403,0.9962304830551147,-0.10812167823314667,0.04955151304602623,-0.037260640412569046,0.0,-2.0,92.0,27.0,0.027,,,,,,,,,,,,,,,,,,,,,,,,,,,,,,False,
1783642898.2367034,2026-07-09T17:21:38,720486,20260709_172133,,,,,,ground_idle,,,,,,,,,False,-0.003443522611632943,-0.017822468653321266,0.9990692734718323,0.06527287513017654,-0.1374645084142685,0.05993631109595299,0.0,0.0,94.0,27.0,0.027,-0.27646520733833313,0.023038601502776146,0.02676624432206154,-0.001764005864970386,-0.004007463343441486,-0.0044586919248104095,-0.8401992321014404,-0.1787630021572113,18.31258773803711,,,,,,,,,,,,,,,,,,,,,False,
1783642898.2468307,2026-07-09T17:21:38,720493,20260709_172133,,,,,,ground_idle,,,,,,,,,False,-0.0025559926871210337,-0.01693299040198326,0.9983428120613098,0.23029322922229767,-0.21129053831100464,0.03525496646761894,0.0,0.0,94.0,27.0,0.027,-0.27646520733833313,0.023038601502776146,0.02676624432206154,-0.001764005864970386,-0.004007463343441486,-0.0044586919248104095,-0.8401992321014404,-0.1787630021572113,18.31258773803711,,,,,,,,,,,,,,,,,,,,,False,
1783642898.2569737,2026-07-09T17:21:38,720506,20260709_172133,,,,,,ground_idle,,,,,,,,,False,-0.002606090856716037,-0.016257600858807564,0.9984011650085449,0.07367725670337677,-0.21373741328716278,0.1632286161184311,0.0,2.0,90.0,27.0,0.027,-0.2759425640106201,0.023207727819681168,0.02667498216032982,0.0005828604917041957,-0.003485532011836767,-0.004710802808403969,-0.8409966230392456,-0.19236040115356445,18.313220977783203,,,,,,,,,,,,,,,,,,,,,False,
1783642898.2670858,2026-07-09T17:21:38,720516,20260709_172133,,,,,,ground_idle,,,,,,,,,False,-0.004799730144441128,-0.01566976122558117,0.998354971408844,0.138580784201622,-0.07559660822153091,0.07382284849882126,0.0,-1.0,77.0,27.0,0.027,-0.2759425640106201,0.023207727819681168,0.02667498216032982,0.0005828604917041957,-0.003485532011836767,-0.004710802808403969,-0.8409966230392456,-0.19236040115356445,18.313220977783203,0.026628265157341957,-0.00491601787507534,4.640308361558709e-06,0.0003144333604723215,3.9747800827026367,70.0,0.0,0.0,0.0,0.0,0.0,32.766,32.766,0.28,0.387,0.03,,,,,False,
1783642898.2772124,2026-07-09T17:21:38,720526,20260709_172133,,,,,,ground_idle,,,,,,,,,False,-0.00509077962487936,-0.015685169026255608,1.0012320280075073,0.2437906414270401,-0.09371772408485413,-0.1940128654241562,0.0,-1.0,83.0,27.0,0.027,-0.2764214873313904,0.02314084954559803,0.026581082493066788,-0.0012156310258433223,-0.0036905789747834206,-0.0049840123392641544,-0.8442758321762085,-0.17938444018363953,18.313636779785156,0.026628265157341957,-0.00491601787507534,4.640308361558709e-06,0.0003144333604723215,3.9747800827026367,70.0,0.0,0.0,0.0,0.0,0.0,32.766,32.766,0.28,0.387,0.03,,,,,False,
1783642898.2873318,2026-07-09T17:21:38,720536,20260709_172133,,,,,,ground_idle,,,,,,,,,False,-0.004408129025250673,-0.016726629808545113,0.9999896287918091,0.047010645270347595,-0.13213025033473969,0.277059406042099,0.0,2.0,84.0,27.0,0.027,-0.2764214873313904,0.02314084954559803,0.026581082493066788,-0.0012156310258433223,-0.0036905789747834206,-0.0049840123392641544,-0.8442758321762085,-0.17938444018363953,18.313636779785156,0.026628265157341957,-0.00491601787507534,4.640308361558709e-06,0.0003144333604723215,3.9747800827026367,70.0,0.0,0.0,0.0,0.0,0.0,32.766,32.766,0.28,0.387,0.03,,,,,False,
1783642898.2974527,2026-07-09T17:21:38,720546,20260709_172133,,,,,,ground_idle,,,,,,,,,False,-0.0032047939021140337,-0.017019668594002724,0.9992210268974304,0.11388333886861801,0.024233095347881317,0.042836304754018784,0.0,0.0,90.0,27.0,0.027,-0.27679869532585144,0.02308032289147377,0.026697620749473572,-0.002972348127514124,-0.004002816043794155,-0.003685773815959692,-0.845720112323761,-0.16971898078918457,18.313573837280273,0.026628265157341957,-0.00491601787507534,4.640308361558709e-06,0.0003144333604723215,3.9747800827026367,70.0,0.0,0.0,0.0,0.0,0.0,32.766,32.766,0.28,0.387,0.03,,,,,False,
1783642898.307574,2026-07-09T17:21:38,720556,20260709_172133,,,,,,ground_idle,,,,,,,,,False,-0.004339972045272589,-0.01741698570549488,0.9995746612548828,-0.31718164682388306,0.22264862060546875,-0.07344450056552887,0.0,0.0,92.0,27.0,0.027,-0.27679869532585144,0.02308032289147377,0.026697620749473572,-0.002972348127514124,-0.004002816043794155,-0.003685773815959692,-0.845720112323761,-0.16971898078918457,18.313573837280273,0.026628265157341957,-0.00491601787507534,4.640308361558709e-06,0.0003144333604723215,3.9747800827026367,70.0,0.0,0.0,0.0,0.0,0.0,32.766,32.766,0.28,0.387,0.03,,,,,False,
1783642898.3177197,2026-07-09T17:21:38,720565,20260709_172133,,,,,,ground_idle,,,,,,,,,False,-0.004714110400527716,-0.01694420538842678,1.0018590688705444,0.08632604777812958,0.03170447051525116,0.005998606793582439,0.0,0.0,92.0,27.0,0.027,-0.27685797214508057,0.022995686158537865,0.026623087003827095,-0.002966374857351184,-0.004501573741436005,-0.0037943669594824314,-0.8465989828109741,-0.16688556969165802,18.314279556274414,0.026623087003827095,-0.003855636343359947,4.636067387764342e-06,0.0003053333202842623,3.969501495361328,70.0,0.0,0.0,0.0,0.0,0.0,32.766,32.766,0.28,0.4,0.03,2018.4443359375,809.968994140625,36.284812927246094,,False,
1783642898.3278718,2026-07-09T17:21:38,720576,20260709_172133,,,,,,ground_idle,,,,,,,,,False,-0.0022018891759216785,-0.018289947882294655,0.9998189806938171,0.2737709581851959,-0.15209320187568665,0.08571023494005203,0.0,0.0,76.0,27.0,0.027,-0.27685797214508057,0.022995686158537865,0.026623087003827095,-0.002966374857351184,-0.004501573741436005,-0.0037943669594824314,-0.8465989828109741,-0.16688556969165802,18.314279556274414,0.026623087003827095,-0.003855636343359947,4.636067387764342e-06,0.0003053333202842623,3.969501495361328,70.0,0.0,0.0,0.0,0.0,0.0,32.766,32.766,0.28,0.4,0.03,2018.4443359375,809.968994140625,36.284812927246094,,False,
1783642898.3380177,2026-07-09T17:21:38,720586,20260709_172133,,,,,,ground_idle,,,,,,,,,False,-0.0046838754788041115,-0.018122483044862747,0.998029351234436,0.31910017132759094,0.14947958290576935,-0.15806062519550323,0.0,-1.0,92.0,27.0,0.027,-0.27691882848739624,0.022902274504303932,0.0267491415143013,-0.002978735603392124,-0.005038433708250523,-0.002474651439115405,-0.8466298580169678,-0.16646479070186615,18.314748764038086,0.026623087003827095,-0.003855636343359947,4.636067387764342e-06,0.0003053333202842623,3.969501495361328,70.0,0.0,0.0,0.0,0.0,0.0,32.766,32.766,0.28,0.4,0.03,2018.4443359375,809.968994140625,36.284812927246094,,False,
1783642898.3481636,2026-07-09T17:21:38,720596,20260709_172133,,,,,,ground_idle,,,,,,,,,False,-0.004039220046252012,-0.016748232766985893,0.9980657696723938,0.011251264251768589,0.09126435220241547,0.06311555951833725,0.0,1.0,96.0,27.0,0.027,-0.27691882848739624,0.022902274504303932,0.0267491415143013,-0.002978735603392124,-0.005038433708250523,-0.002474651439115405,-0.8466298580169678,-0.16646479070186615,18.314748764038086,0.026623087003827095,-0.003855636343359947,4.636067387764342e-06,0.0003053333202842623,3.969501495361328,70.0,0.0,0.0,0.0,0.0,0.0,32.766,32.766,0.28,0.4,0.03,2018.4443359375,809.968994140625,36.284812927246094,,False,
1783642898.3583128,2026-07-09T17:21:38,720606,20260709_172133,,,,,,ground_idle,,,,,,,,,False,-0.0028421913739293814,-0.01568152755498886,0.9981144070625305,0.21824881434440613,-0.33481118083000183,0.017302239313721657,0.0,0.0,96.0,27.0,0.027,-0.2768189013004303,0.023000411689281464,0.026699207723140717,-0.0024711701553314924,-0.004810142330825329,-0.002740774769335985,-0.8489689826965332,-0.1707078218460083,18.317472457885742,0.026623087003827095,-0.003855636343359947,4.636067387764342e-06,0.0003053333202842623,3.969501495361328,70.0,0.0,0.0,0.0,0.0,0.0,32.766,32.766,0.28,0.4,0.03,2018.4443359375,809.968994140625,36.284812927246094,,False,
1783642898.3684583,2026-07-09T17:21:38,720618,20260709_172133,,,,,,ground_idle,,,,,,,,,False,-0.00416699331253767,-0.01710660383105278,0.9984534382820129,0.10744403302669525,-0.06300348788499832,0.02419298142194748,0.0,0.0,81.0,27.0,0.027,-0.27686798572540283,0.022901736199855804,0.02664189226925373,-0.0024645687080919743,-0.005082818679511547,-0.0030392147600650787,-0.8489689826965332,-0.1707078218460083,18.317472457885742,0.02667129598557949,-0.0029099835082888603,4.588800493365852e-06,0.00027163836057297885,3.9747800827026367,70.0,0.0,0.0,0.0,0.0,0.0,32.766,32.766,0.28400000000000003,0.4,0.029,2018.4443359375,809.968994140625,36.284812927246094,,False,
1783642898.3786054,2026-07-09T17:21:38,720626,20260709_172133,,,,,,ground_idle,,,,,,,,,False,-0.0052925474010407925,-0.019231677055358887,0.9991813898086548,0.02852245606482029,-0.12945322692394257,-0.14688250422477722,0.0,-2.0,78.0,29.0,0.029,-0.27686798572540283,0.022901736199855804,0.02664189226925373,-0.0024645687080919743,-0.005082818679511547,-0.0030392147600650787,-0.8467312455177307,-0.16994911432266235,18.317882537841797,0.02667129598557949,-0.0029099835082888603,4.588800493365852e-06,0.00027163836057297885,3.9747800827026367,70.0,0.0,0.0,0.0,0.0,0.0,32.766,32.766,0.28400000000000003,0.4,0.029,2018.4443359375,809.968994140625,36.284812927246094,,False,
1783642898.3887513,2026-07-09T17:21:38,720636,20260709_172133,,,,,,ground_idle,,,,,,,,,False,-0.0015839595580473542,-0.017753755673766136,1.0000720024108887,0.09885379672050476,-0.4747735261917114,0.10696151107549667,0.0,2.0,91.0,29.0,0.029,-0.27686798572540283,0.022901736199855804,0.02664189226925373,-0.0024645687080919743,-0.005082818679511547,-0.0030392147600650787,-0.8467312455177307,-0.16994911432266235,18.317882537841797,0.02667129598557949,-0.0029099835082888603,4.588800493365852e-06,0.00027163836057297885,3.9747800827026367,70.0,0.0,0.0,0.0,0.0,0.0,32.766,32.766,0.28400000000000003,0.4,0.029,2018.4443359375,809.968994140625,36.284812927246094,,False,
1783642898.3989084,2026-07-09T17:21:38,720646,20260709_172133,,,,,,ground_idle,,,,,,,,,False,-0.004002676345407963,-0.015453964471817017,0.9985665678977966,-0.09863614290952682,-0.330663800239563,-0.04862809553742409,0.0,0.0,91.0,29.0,0.029,-0.276824951171875,0.023017529398202896,0.027771269902586937,-0.0022094605956226587,-0.004857612308114767,0.0030566691420972347,-0.8540887236595154,-0.16788290441036224,18.320409774780273,0.02667129598557949,-0.0029099835082888603,4.588800493365852e-06,0.00027163836057297885,3.9747800827026367,70.0,0.0,0.0,0.0,0.0,0.0,32.766,32.766,0.28400000000000003,0.4,0.029,2018.4443359375,809.968994140625,36.284812927246094,,False,
1783642898.4090755,2026-07-09T17:21:38,720658,20260709_172133,,,,,,ground_idle,,,,,,,,,False,-0.004183320794254541,-0.015758726745843887,0.9992585778236389,0.1502785086631775,-0.01815463788807392,0.07969796657562256,0.0,0.0,90.0,29.0,0.029,-0.2768685817718506,0.02291809767484665,0.027830472216010094,-0.002268698997795582,-0.005090841557830572,0.0028614227194339037,-0.8540887236595154,-0.16788290441036224,18.320409774780273,0.02667129598557949,-0.0029099835082888603,4.588800493365852e-06,0.00027163836057297885,3.9747800827026367,70.0,0.0,0.0,0.0,0.0,0.0,32.766,32.766,0.28400000000000003,0.4,0.029,2018.4443359375,809.968994140625,36.284812927246094,,False,
1783642898.4192328,2026-07-09T17:21:38,720666,20260709_172133,,,,,,ground_idle,,,,,,,,,False,-0.005086107645183802,-0.015492301434278488,0.9981473088264465,0.15951962769031525,-0.3113633692264557,0.056016769260168076,0.0,0.0,93.0,29.0,0.029,-0.2768685817718506,0.02291809767484665,0.027830472216010094,-0.002268698997795582,-0.005090841557830572,0.0028614227194339037,-0.8536412119865417,-0.1658860594034195,18.3210391998291,0.027830472216010094,0.002788855694234371,4.472482942219358e-06,0.00024473396479152143,3.969501495361328,70.0,0.0,0.0,0.0,0.0,0.0,32.766,32.766,0.28400000000000003,0.39,0.029,2018.3787841796875,809.9749755859375,36.28821563720703,,False,
1783642898.4293764,2026-07-09T17:21:38,720678,20260709_172133,,,,,,ground_idle,,,,,,,,,False,-0.0027183338534086943,-0.016480086371302605,0.9992907643318176,0.05570073798298836,0.16481925547122955,-0.008077547885477543,0.0,-1.0,80.0,27.0,0.027,-0.27637484669685364,0.023065460845828056,0.027484405785799026,-0.00033052347134798765,-0.004248871933668852,0.0005489701288752258,-0.8536412119865417,-0.1658860594034195,18.3210391998291,0.027830472216010094,0.002788855694234371,4.472482942219358e-06,0.00024473396479152143,3.969501495361328,70.0,0.0,0.0,0.0,0.0,0.0,32.766,32.766,0.28400000000000003,0.39,0.029,2018.3787841796875,809.9749755859375,36.28821563720703,,False,
1783642898.4395175,2026-07-09T17:21:38,720686,20260709_172133,,,,,,ground_idle,,,,,,,,,False,-0.0009341040858998895,-0.016838787123560905,0.9973616600036621,0.14194606244564056,-0.13318222761154175,-0.029977912083268166,0.0,1.0,91.0,27.0,0.027,-0.27637484669685364,0.023065460845828056,0.027484405785799026,-0.00033052347134798765,-0.004248871933668852,0.0005489701288752258,-0.8544071316719055,-0.183910071849823,18.323944091796875,0.027830472216010094,0.002788855694234371,4.472482942219358e-06,0.00024473396479152143,3.969501495361328,70.0,0.0,0.0,0.0,0.0,0.0,32.766,32.766,0.28400000000000003,0.39,0.029,2018.3787841796875,809.9749755859375,36.28821563720703,,False,
1783642898.4496582,2026-07-09T17:21:38,720698,20260709_172133,,,,,,ground_idle,,,,,,,,,False,-0.0018017396796494722,-0.01727161929011345,0.9997062683105469,0.19761338829994202,-0.25270766019821167,-0.2048397660255432,0.0,0.0,86.0,27.0,0.027,-0.2768321633338928,0.022923855111002922,0.02749229408800602,-0.0016973026795312762,-0.004760755691677332,0.00026923802215605974,-0.8544071316719055,-0.183910071849823,18.323944091796875,0.027830472216010094,0.002788855694234371,4.472482942219358e-06,0.00024473396479152143,3.969501495361328,70.0,0.0,0.0,0.0,0.0,0.0,32.766,32.766,0.28400000000000003,0.39,0.029,2018.3787841796875,809.9749755859375,36.28821563720703,,False,
1783642898.4598053,2026-07-09T17:21:38,720706,20260709_172133,,,,,,ground_idle,,,,,,,,,False,-0.0021820946130901575,-0.016673287376761436,1.001603126525879,-0.01798161491751671,-0.07538333535194397,0.09285792708396912,0.0,0.0,93.0,27.0,0.027,-0.2768321633338928,0.022923855111002922,0.02749229408800602,-0.0016973026795312762,-0.004760755691677332,0.00026923802215605974,-0.8549806475639343,-0.16721592843532562,18.321374893188477,0.027830472216010094,0.002788855694234371,4.472482942219358e-06,0.00024473396479152143,3.969501495361328,70.0,0.0,0.0,0.0,0.0,0.0,32.766,32.766,0.28400000000000003,0.39,0.029,2018.3787841796875,809.9749755859375,36.28821563720703,,False,
1783642898.4701266,2026-07-09T17:21:38,720718,20260709_172133,,,,,,ground_idle,,,,,,,,,False,-0.004899892490357161,-0.017984094098210335,1.000847578048706,-0.08117023855447769,-0.16499903798103333,-0.04317713901400566,0.0,0.0,74.0,27.0,0.027,-0.27686387300491333,0.0228250864893198,0.02750011347234249,-0.0015648102853447199,-0.005159411113709211,0.0004964788095094264,-0.8549806475639343,-0.16721592843532562,18.321374893188477,0.02749563567340374,0.0003284077101852745,4.3262102735752705e-06,0.0002269214455736801,3.9747800827026367,70.0,0.0,0.0,0.0,0.0,0.0,32.766,32.766,0.279,0.39,0.028,2018.3787841796875,809.9749755859375,36.28821563720703,,False,
1783642898.4802668,2026-07-09T17:21:38,720726,20260709_172133,,,,,,ground_idle,,,,,,,,,False,-0.005335125606507063,-0.01601959578692913,0.9997832775115967,0.13819219172000885,0.006192374974489212,0.06142400577664375,0.0,-1.0,75.0,31.0,0.031,-0.27686387300491333,0.0228250864893198,0.02750011347234249,-0.0015648102853447199,-0.005159411113709211,0.0004964788095094264,-0.8514997959136963,-0.16734454035758972,18.3211612701416,0.02749563567340374,0.0003284077101852745,4.3262102735752705e-06,0.0002269214455736801,3.9747800827026367,70.0,0.0,0.0,0.0,0.0,0.0,32.766,32.766,0.279,0.39,0.028,2018.3787841796875,809.9749755859375,36.28821563720703,,False,
1783642898.4904199,2026-07-09T17:21:38,720738,20260709_172133,,,,,,ground_idle,,,,,,,,,False,-0.0058154333382844925,-0.015611854381859303,1.0001333951950073,0.023800693452358246,0.06615562736988068,-0.2171952873468399,0.0,1.0,90.0,31.0,0.031,-0.2768160402774811,0.022963492199778557,0.02919825166463852,-0.0017307731322944164,-0.00451144902035594,0.008746077306568623,-0.8514997959136963,-0.16734454035758972,18.3211612701416,0.02749563567340374,0.0003284077101852745,4.3262102735752705e-06,0.0002269214455736801,3.9747800827026367,70.0,0.0,0.0,0.0,0.0,0.0,32.766,32.766,0.279,0.39,0.028,2018.3787841796875,809.9749755859375,36.28821563720703,,False,
1783642898.5005617,2026-07-09T17:21:38,720746,20260709_172133,,,,,,ground_idle,,,,,,,,,False,-0.005005496088415384,-0.015391165390610695,0.9986293911933899,0.40371397137641907,0.17835436761379242,0.04425976425409317,0.0,0.0,92.0,31.0,0.031,-0.2768160402774811,0.022963492199778557,0.02919825166463852,-0.0017307731322944164,-0.00451144902035594,0.008746077306568623,-0.8572648763656616,-0.17075300216674805,18.322864532470703,0.02749563567340374,0.0003284077101852745,4.3262102735752705e-06,0.0002269214455736801,3.9747800827026367,70.0,0.0,0.0,0.0,0.0,0.0,32.766,32.766,0.279,0.39,0.028,2018.3787841796875,809.9749755859375,36.28821563720703,,False,
1783642898.51072,2026-07-09T17:21:38,720758,20260709_172133,,,,,,ground_idle,,,,,,,,,False,-0.0039712595753371716,-0.015534816309809685,0.9986093044281006,0.11767295747995377,-0.19911746680736542,0.1659117192029953,0.0,-1.0,96.0,31.0,0.031,-0.2763591706752777,0.023104673251509666,0.029373016208410263,-8.512971544405445e-05,-0.0036392835900187492,0.008593587204813957,-0.8572648763656616,-0.17075300216674805,18.322864532470703,0.02749563567340374,0.0003284077101852745,4.3262102735752705e-06,0.0002269214455736801,3.9747800827026367,70.0,0.0,0.0,0.0,0.0,0.0,32.766,32.766,0.279,0.39,0.028,2018.3787841796875,809.9749755859375,36.28821563720703,,False,
1783642898.521135,2026-07-09T17:21:38,720766,20260709_172133,,,,,,ground_idle,,,,,,,,,False,-0.00246557523496449,-0.0176186915487051,0.9997479915618896,0.01864297315478325,-0.247024267911911,0.04926043748855591,0.0,0.0,95.0,31.0,0.031,-0.2763591706752777,0.023104673251509666,0.029373016208410263,-8.512971544405445e-05,-0.0036392835900187492,0.008593587204813957,-0.8583971261978149,-0.18626399338245392,18.32571029663086,0.029373016208410263,0.008537257090210915,4.192786036583129e-06,0.0002165855112252757,3.969501495361328,70.0,0.0,0.0,0.0,0.0,0.0,32.766,32.766,0.279,0.386,0.028,2018.39501953125,809.9732666015625,36.28889083862305,,False,
1783642898.5316887,2026-07-09T17:21:38,720778,20260709_172133,,,,,,ground_idle,,,,,,,,,False,-0.0030191647820174694,-0.01599295809864998,1.0006515979766846,0.0883394330739975,-0.10361316055059433,0.08623535186052322,0.0,-2.0,79.0,25.0,0.025,-0.2754509150981903,0.02334435284137726,0.027540532872080803,0.003691188059747219,-0.0025725143495947123,-0.0014416958438232541,-0.8583971261978149,-0.18626399338245392,18.32571029663086,0.029373016208410263,0.008537257090210915,4.192786036583129e-06,0.0002165855112252757,3.969501495361328,70.0,0.0,0.0,0.0,0.0,0.0,32.766,32.766,0.279,0.386,0.028,2018.39501953125,809.9732666015625,36.28889083862305,,False,
1783642898.5419006,2026-07-09T17:21:38,720786,20260709_172133,,,,,,ground_idle,,,,,,,,,False,-0.004462395329028368,-0.017328893765807152,0.9987781643867493,0.05057588964700699,-0.11919060349464417,0.028830479830503464,0.0,3.0,93.0,25.0,0.025,-0.2754509150981903,0.02334435284137726,0.027540532872080803,0.003691188059747219,-0.0025725143495947123,-0.0014416958438232541,-0.8579684495925903,-0.2145177274942398,18.330270767211914,0.029373016208410263,0.008537257090210915,4.192786036583129e-06,0.0002165855112252757,3.969501495361328,70.0,0.0,0.0,0.0,0.0,0.0,32.766,32.766,0.279,0.386,0.028,2018.39501953125,809.9732666015625,36.28889083862305,,False,
1783642898.5520768,2026-07-09T17:21:38,720800,20260709_172133,,,,,,ground_idle,,,,,,,,,False,-0.006697984412312508,-0.015580969862639904,1.0008858442306519,0.08728671073913574,0.02646913379430771,-0.0459846630692482,0.0,0.0,93.0,25.0,0.025,-0.27679023146629333,0.022945445030927658,0.027515236288309097,-0.001947076409123838,-0.0044661154970526695,-0.0014486018335446715,-0.8586199879646301,-0.16721773147583008,18.32544708251953,0.029373016208410263,0.008537257090210915,4.192786036583129e-06,0.0002165855112252757,3.969501495361328,70.0,0.0,0.0,0.0,0.0,0.0,32.766,32.766,0.279,0.386,0.028,2018.39501953125,809.9732666015625,36.28889083862305,,False,
1783642898.5622764,2026-07-09T17:21:38,720806,20260709_172133,,,,,,ground_idle,,,,,,,,,False,-0.0070076617412269115,-0.01385504100471735,0.9994787573814392,-0.030278077349066734,0.05611642077565193,0.1564742624759674,0.0,0.0,89.0,25.0,0.025,-0.27679023146629333,0.022945445030927658,0.027515236288309097,-0.001947076409123838,-0.0044661154970526695,-0.0014486018335446715,-0.8586199879646301,-0.16721773147583008,18.32544708251953,0.029373016208410263,0.008537257090210915,4.192786036583129e-06,0.0002165855112252757,3.969501495361328,70.0,0.0,0.0,0.0,0.0,0.0,32.766,32.766,0.279,0.386,0.028,2018.39501953125,809.9732666015625,36.28889083862305,,False,
1783642898.5724664,2026-07-09T17:21:38,720820,20260709_172133,,,,,,ground_idle,,,,,,,,,False,-0.004308298230171204,-0.015083693899214268,1.0001068115234375,0.10317716747522354,-0.06582289189100266,0.2893126308917999,0.0,-1.0,83.0,25.0,0.025,-0.2763405442237854,0.02306746505200863,0.027488116174936295,-0.0005864597042091191,-0.0036022840067744255,-0.0014401640510186553,-0.8589977025985718,-0.18405020236968994,18.328067779541016,0.027500774711370468,-0.00150796037632972,4.091730261279736e-06,0.00021125396597199142,3.9747800827026367,70.0,0.0,0.0,0.0,0.0,0.0,32.766,32.766,0.28,0.386,0.028,2018.39501953125,809.9732666015625,36.28889083862305,,False,
1783642898.5826197,2026-07-09T17:21:38,720826,20260709_172133,,,,,,ground_idle,,,,,,,,,False,-0.0029250194784253836,-0.016360916197299957,0.999970018863678,0.027371704578399658,-0.06023520603775978,0.0729290172457695,0.0,0.0,75.0,25.0,0.025,-0.2763405442237854,0.02306746505200863,0.027488116174936295,-0.0005864597042091191,-0.0036022840067744255,-0.0014401640510186553,-0.8589977025985718,-0.18405020236968994,18.328067779541016,0.027500774711370468,-0.00150796037632972,4.091730261279736e-06,0.00021125396597199142,3.9747800827026367,70.0,0.0,0.0,0.0,0.0,0.0,32.766,32.766,0.28,0.386,0.028,2018.39501953125,809.9732666015625,36.28889083862305,,False,
1783642898.5927675,2026-07-09T17:21:38,720840,20260709_172133,,,,,,ground_idle,,,,,,,,,False,-0.005026217084378004,-0.016629356890916824,0.9973105192184448,0.15217767655849457,0.09572551399469376,0.3778574764728546,0.0,1.0,88.0,25.0,0.025,-0.27677154541015625,0.022926393896341324,0.026302549988031387,-0.0023321816697716713,-0.0042943200096488,-0.007053248584270477,-0.8599618673324585,-0.16870778799057007,18.32883644104004,0.027500774711370468,-0.00150796037632972,4.091730261279736e-06,0.00021125396597199142,3.9747800827026367,70.0,0.0,0.0,0.0,0.0,0.0,32.766,32.766,0.28,0.386,0.028,2018.39501953125,809.9732666015625,36.28889083862305,,False,
1783642898.6030562,2026-07-09T17:21:38,720846,20260709_172133,,,,,,ground_idle,,,,,,,,,False,-0.0034897911828011274,-0.01588163524866104,1.0000361204147339,0.051232993602752686,-0.07904694974422455,-0.07158447802066803,0.0,0.0,89.0,25.0,0.025,-0.27677154541015625,0.022926393896341324,0.026302549988031387,-0.0023321816697716713,-0.0042943200096488,-0.007053248584270477,-0.8599618673324585,-0.16870778799057007,18.32883644104004,0.027500774711370468,-0.00150796037632972,4.091730261279736e-06,0.00021125396597199142,3.9747800827026367,70.0,0.0,0.0,0.0,0.0,0.0,32.766,32.766,0.28,0.386,0.028,2018.39501953125,809.9732666015625,36.28889083862305,,False,
1783642898.6132302,2026-07-09T17:21:38,720863,20260709_172133,,,,,,ground_idle,,,,,,,,,False,-0.004632302559912205,-0.015746217221021652,0.997934103012085,-0.0841064453125,0.03791126608848572,0.01846693456172943,0.0,0.0,91.0,25.0,0.025,-0.27681946754455566,0.022837746888399124,0.02615961804986,-0.0024790039751678705,-0.004553501959890127,-0.007237918674945831,-0.857958197593689,-0.16954751312732697,18.329439163208008,0.02615961804986,-0.007301339413970709,4.025064754387131e-06,0.000208838187973015,3.969501495361328,70.0,0.0,0.0,0.0,0.0,0.0,32.766,32.766,0.28,0.386,0.028,2018.39501953125,809.9732666015625,36.28889083862305,,False,
1783642898.6233764,2026-07-09T17:21:38,720873,20260709_172133,,,,,,ground_idle,,,,,,,,,False,-0.0045467582531273365,-0.016358613967895508,0.9994138479232788,-0.0981232151389122,-0.1818217933177948,0.21550197899341583,0.0,0.0,91.0,25.0,0.025,-0.27681946754455566,0.022837746888399124,0.02615961804986,-0.0024790039751678705,-0.004553501959890127,-0.007237918674945831,-0.857958197593689,-0.16954751312732697,18.329439163208008,0.02615961804986,-0.007301339413970709,4.025064754387131e-06,0.000208838187973015,3.969501495361328,70.0,0.0,0.0,0.0,0.0,0.0,32.766,32.766,0.28,0.394,0.028,2018.5645751953125,809.958251953125,36.290409088134766,,False,
1783642898.633511,2026-07-09T17:21:38,720883,20260709_172133,,,,,,ground_idle,,,,,,,,,False,-0.0033044239971786737,-0.01567552238702774,0.9978843331336975,0.08576349169015884,0.1161896139383316,0.2140013724565506,0.0,-2.0,85.0,30.0,0.03,-0.2758759558200836,0.023134952411055565,0.02773076854646206,0.0012743306579068303,-0.003028083359822631,0.0011071946937590837,-0.8608391284942627,-0.20133835077285767,18.33375358581543,0.02615961804986,-0.007301339413970709,4.025064754387131e-06,0.000208838187973015,3.969501495361328,70.0,0.0,0.0,0.0,0.0,0.0,32.766,32.766,0.28,0.394,0.028,2018.5645751953125,809.958251953125,36.290409088134766,,False,
1783642898.6436498,2026-07-09T17:21:38,720893,20260709_172133,,,,,,ground_idle,,,,,,,,,False,-0.004392604809254408,-0.016637394204735756,1.000251054763794,0.20716232061386108,-0.11705712229013443,0.05042479932308197,0.0,2.0,92.0,30.0,0.03,-0.2758759558200836,0.023134952411055565,0.02773076854646206,0.0012743306579068303,-0.003028083359822631,0.0011071946937590837,-0.8608391284942627,-0.20133835077285767,18.33375358581543,0.02615961804986,-0.007301339413970709,4.025064754387131e-06,0.000208838187973015,3.969501495361328,70.0,0.0,0.0,0.0,0.0,0.0,32.766,32.766,0.28,0.394,0.028,2018.5645751953125,809.958251953125,36.290409088134766,,False,
1783642898.653792,2026-07-09T17:21:38,720903,20260709_172133,,,,,,ground_idle,,,,,,,,,False,-0.004400726407766342,-0.01647959277033806,0.9997904896736145,0.16613228619098663,0.3280804753303528,-0.06316224485635757,0.0,0.0,92.0,30.0,0.03,-0.2768044173717499,0.022868309170007706,0.02775106579065323,-0.0024494612589478493,-0.004178385715931654,0.0008779017953202128,-0.8613044023513794,-0.16930685937404633,18.332136154174805,0.02615961804986,-0.007301339413970709,4.025064754387131e-06,0.000208838187973015,3.969501495361328,70.0,0.0,0.0,0.0,0.0,0.0,32.766,32.766,0.28,0.394,0.028,2018.5645751953125,809.958251953125,36.290409088134766,,False,
1783642898.6640227,2026-07-09T17:21:38,720913,20260709_172133,,,,,,ground_idle,,,,,,,,,False,-0.004400726407766342,-0.01647959277033806,0.9997904896736145,0.16613228619098663,0.3280804753303528,-0.06316224485635757,0.0,0.0,90.0,30.0,0.03,-0.2768044173717499,0.022868309170007706,0.02775106579065323,-0.0024494612589478493,-0.004178385715931654,0.0008779017953202128,-0.8613044023513794,-0.16930685937404633,18.332136154174805,0.02776012197136879,0.0008728267275728285,3.986252067988971e-06,0.00020791901624761522,3.9747800827026367,70.0,0.0,0.0,0.0,0.0,0.0,32.766,32.766,0.28,0.394,0.028,2018.5645751953125,809.958251953125,36.290409088134766,,False,
1783642898.6741729,2026-07-09T17:21:38,720923,20260709_172133,,,,,,ground_idle,,,,,,,,,False,-0.007784208748489618,-0.013876841403543949,0.9994273781776428,0.11400596797466278,-0.2301715910434723,0.08004900813102722,0.0,-1.0,81.0,30.0,0.03,-0.27633780241012573,0.022992834448814392,0.027770688757300377,-0.0006235548644326627,-0.0035268901847302914,0.0008414838230237365,-0.8602101802825928,-0.1857426017522812,18.333986282348633,0.02776012197136879,0.0008728267275728285,3.986252067988971e-06,0.00020791901624761522,3.9747800827026367,70.0,0.0,0.0,0.0,0.0,0.0,32.766,32.766,0.28,0.394,0.028,2018.5645751953125,809.958251953125,36.290409088134766,,False,
1783642898.6843102,2026-07-09T17:21:38,720933,20260709_172133,,,,,,ground_idle,,,,,,,,,False,-0.004996967036277056,-0.013393187895417213,0.999947190284729,0.14645999670028687,-0.503005862236023,-0.06525583565235138,0.0,0.0,77.0,27.0,0.027,-0.27633780241012573,0.022992834448814392,0.027770688757300377,-0.0006235548644326627,-0.0035268901847302914,0.0008414838230237365,-0.8602101802825928,-0.1857426017522812,18.333986282348633,0.02776012197136879,0.0008728267275728285,3.986252067988971e-06,0.00020791901624761522,3.9747800827026367,70.0,0.0,0.0,0.0,0.0,0.0,32.766,32.766,0.28,0.394,0.028,2018.5645751953125,809.958251953125,36.290409088134766,,False,
1783642898.6944468,2026-07-09T17:21:38,720943,20260709_172133,,,,,,ground_idle,,,,,,,,,False,-0.004328307695686817,-0.015503325499594212,1.0011228322982788,0.2709999978542328,0.09679538756608963,0.0780797153711319,0.0,1.0,90.0,27.0,0.027,-0.27680304646492004,0.022855635732412338,0.0274338498711586,-0.003107916796579957,-0.0038426187820732594,-0.0008586333133280277,-0.860031008720398,-0.16935831308364868,18.332307815551758,0.02776012197136879,0.0008728267275728285,3.986252067988971e-06,0.00020791901624761522,3.9747800827026367,70.0,0.0,0.0,0.0,0.0,0.0,32.766,32.766,0.28,0.394,0.028,2018.5645751953125,809.958251953125,36.290409088134766,,False,
1783642898.7045856,2026-07-09T17:21:38,720953,20260709_172133,,,,,,ground_idle,,,,,,,,,False,-0.005835381336510181,-0.015418929047882557,0.9992138147354126,0.021519958972930908,-0.5471673011779785,0.11065535247325897,0.0,0.0,85.0,27.0,0.027,-0.27680304646492004,0.022855635732412338,0.0274338498711586,-0.003107916796579957,-0.0038426187820732594,-0.0008586333133280277,-0.860031008720398,-0.16935831308364868,18.332307815551758,0.02776012197136879,0.0008728267275728285,3.986252067988971e-06,0.00020791901624761522,3.9747800827026367,70.0,0.0,0.0,0.0,0.0,0.0,32.766,32.766,0.28,0.394,0.028,2018.5645751953125,809.958251953125,36.290409088134766,,False,
1783642898.7147398,2026-07-09T17:21:38,720963,20260709_172133,,,,,,ground_idle,,,,,,,,,False,-0.005835381336510181,-0.015418929047882557,0.9992138147354126,0.021519958972930908,-0.5471673011779785,0.11065535247325897,0.0,-1.0,94.0,27.0,0.027,-0.2763497829437256,0.022981522604823112,0.027418920770287514,-0.0013950683642178774,-0.0030126990750432014,-0.0008040363900363445,-0.8595991730690002,-0.1848912537097931,18.335805892944336,0.027418920770287514,-0.0008475928916595876,3.966357326135039e-06,0.00020764913642778993,3.969501495361328,70.0,0.0,0.0,0.0,0.0,0.0,32.766,32.766,0.28,32.766,0.028,2018.5645751953125,809.958251953125,36.290409088134766,,False,
1783642898.7250118,2026-07-09T17:21:38,720973,20260709_172133,,,,,,ground_idle,,,,,,,,,False,-0.002609845018014312,-0.01516486145555973,0.9983639717102051,0.07411157339811325,-0.17492446303367615,0.13384050130844116,0.0,0.0,95.0,27.0,0.027,-0.2763497829437256,0.022981522604823112,0.027418920770287514,-0.0013950683642178774,-0.0030126990750432014,-0.0008040363900363445,-0.8595991730690002,-0.1848912537097931,18.335805892944336,0.027418920770287514,-0.0008475928916595876,3.966357326135039e-06,0.00020764913642778993,3.969501495361328,70.0,0.0,0.0,0.0,0.0,0.0,32.766,32.766,0.28,32.766,0.028,2018.5098876953125,809.9631958007812,36.29377365112305,,False,
1783642898.7351744,2026-07-09T17:21:38,720983,20260709_172133,,,,,,ground_idle,,,,,,,,,False,-0.003464973997324705,-0.014604957774281502,0.9990435242652893,-0.10418937355279922,0.05569278821349144,0.17637303471565247,0.0,0.0,74.0,27.0,0.027,-0.2763766050338745,0.022917360067367554,0.02722078748047352,-0.001302797463722527,-0.003181066829711199,-0.0020693489350378513,-0.8566318154335022,-0.17853134870529175,18.336666107177734,0.027418920770287514,-0.0008475928916595876,3.966357326135039e-06,0.00020764913642778993,3.969501495361328,70.0,0.0,0.0,0.0,0.0,0.0,32.766,32.766,0.28,32.766,0.028,2018.5098876953125,809.9631958007812,36.29377365112305,,False,
1783642898.745338,2026-07-09T17:21:38,720993,20260709_172133,,,,,,ground_idle,,,,,,,,,False,-0.004086534027010202,-0.016456542536616325,0.9985257983207703,0.23903502523899078,0.014842300675809383,-0.010922601446509361,0.0,3.0,92.0,27.0,0.027,-0.2763766050338745,0.022917360067367554,0.02722078748047352,-0.001302797463722527,-0.003181066829711199,-0.0020693489350378513,-0.8566318154335022,-0.17853134870529175,18.336666107177734,0.027418920770287514,-0.0008475928916595876,3.966357326135039e-06,0.00020764913642778993,3.969501495361328,70.0,0.0,0.0,0.0,0.0,0.0,32.766,32.766,0.28,32.766,0.028,2018.5098876953125,809.9631958007812,36.29377365112305,,False,
1783642898.755481,2026-07-09T17:21:38,721003,20260709_172133,,,,,,ground_idle,,,,,,,,,False,-0.004765036050230265,-0.016669269651174545,1.002278447151184,0.27978724241256714,-0.42060387134552,-0.08596637845039368,0.0,-2.0,92.0,27.0,0.027,-0.27678564190864563,0.0228527020663023,0.027182454243302345,-0.0028192405588924885,-0.0032408961560577154,-0.0023200467694550753,-0.8604899048805237,-0.16707833111286163,18.337448120117188,0.027418920770287514,-0.0008475928916595876,3.966357326135039e-06,0.00020764913642778993,3.969501495361328,70.0,0.0,0.0,0.0,0.0,0.0,32.766,32.766,0.28,32.766,0.028,2018.5098876953125,809.9631958007812,36.29377365112305,,False,
1783642898.7656193,2026-07-09T17:21:38,721013,20260709_172133,,,,,,ground_idle,,,,,,,,,False,-0.004597337916493416,-0.01710757426917553,0.9992544054985046,0.1955600529909134,-0.06792832165956497,0.12460467964410782,0.0,1.0,87.0,27.0,0.027,-0.27678564190864563,0.0228527020663023,0.027182454243302345,-0.0028192405588924885,-0.0032408961560577154,-0.0023200467694550753,-0.8604899048805237,-0.16707833111286163,18.337448120117188,0.02715948037803173,-0.0021699192002415657,3.957614808314247e-06,0.00020760143524967134,3.9747800827026367,70.0,0.0,0.0,0.0,0.0,0.0,32.766,0.28200000000000003,0.281,32.766,0.029,2018.5098876953125,809.9631958007812,36.29377365112305,,False,
1783642898.7757597,2026-07-09T17:21:38,721023,20260709_172133,,,,,,ground_idle,,,,,,,,,False,-0.004932167008519173,-0.01673034206032753,0.9990535974502563,0.0008834138279780746,-0.006403457373380661,0.08187361806631088,0.0,-1.0,80.0,27.0,0.027,-0.27673497796058655,0.022895902395248413,0.02714044600725174,-0.0024924485478550196,-0.0031189867295324802,-0.0021114612463861704,-0.8607220649719238,-0.16708719730377197,18.33770179748535,0.02715948037803173,-0.0021699192002415657,3.957614808314247e-06,0.00020760143524967134,3.9747800827026367,70.0,0.0,0.0,0.0,0.0,0.0,32.766,0.28200000000000003,0.281,32.766,0.029,2018.5098876953125,809.9631958007812,36.29377365112305,,False,
1783642898.786092,2026-07-09T17:21:38,721033,20260709_172133,,,,,,ground_idle,,,,,,,,,False,-0.004446373786777258,-0.017455536872148514,0.9992319941520691,-0.1296291947364807,-0.06996450573205948,-0.16253764927387238,0.0,-1.0,85.0,27.0,0.027,-0.27673497796058655,0.022895902395248413,0.02714044600725174,-0.0024924485478550196,-0.0031189867295324802,-0.0021114612463861704,-0.8607220649719238,-0.16708719730377197,18.33770179748535,0.02715948037803173,-0.0021699192002415657,3.957614808314247e-06,0.00020760143524967134,3.9747800827026367,70.0,0.0,0.0,0.0,0.0,0.0,32.766,0.28200000000000003,0.281,32.766,0.029,2018.5098876953125,809.9631958007812,36.29377365112305,,False,
1783642898.7962701,2026-07-09T17:21:38,721046,20260709_172133,,,,,,ground_idle,,,,,,,,,False,-0.0029999592807143927,-0.01756702922284603,0.9993138909339905,0.09280091524124146,-0.24898914992809296,-0.018483251333236694,0.0,1.0,93.0,27.0,0.027,-0.2766875624656677,0.022939616814255714,0.02703368104994297,-0.002419364172965288,-0.0031578391790390015,-0.0025696703232824802,-0.8637892007827759,-0.16913144290447235,18.339187622070312,0.02715948037803173,-0.0021699192002415657,3.957614808314247e-06,0.00020760143524967134,3.9747800827026367,70.0,0.0,0.0,0.0,0.0,0.0,32.766,0.28200000000000003,0.281,32.766,0.029,2018.5098876953125,809.9631958007812,36.29377365112305,,False,
1783642898.806425,2026-07-09T17:21:38,721053,20260709_172133,,,,,,ground_idle,,,,,,,,,False,-0.005482352338731289,-0.01550363190472126,0.9997189044952393,-0.030925743281841278,-0.1560460925102234,-0.0884871780872345,0.0,1.0,93.0,27.0,0.027,-0.2766875624656677,0.022939616814255714,0.02703368104994297,-0.002419364172965288,-0.0031578391790390015,-0.0025696703232824802,-0.8637892007827759,-0.16913144290447235,18.339187622070312,0.02715948037803173,-0.0021699192002415657,3.957614808314247e-06,0.00020760143524967134,3.9747800827026367,70.0,0.0,0.0,0.0,0.0,0.0,32.766,0.28200000000000003,0.281,32.766,0.029,2018.5098876953125,809.9631958007812,36.29377365112305,,False,
1783642898.8165808,2026-07-09T17:21:38,721063,20260709_172133,,,,,,ground_idle,,,,,,,,,False,-0.004357866942882538,-0.014638260938227177,1.001893162727356,0.21078146994113922,-0.14257211983203888,0.11209392547607422,0.0,-2.0,94.0,27.0,0.027,-0.2763081192970276,0.023069456219673157,0.026983704417943954,-0.0007073814631439745,-0.0025898979511111975,-0.0026583143044263124,-0.866625964641571,-0.1823035478591919,18.34194564819336,0.026983704417943954,-0.0026965460274368525,3.954522526328219e-06,0.0002075907977996394,3.969501495361328,70.0,0.0,0.0,0.0,0.0,0.0,32.766,0.28200000000000003,0.281,32.766,0.029,2018.5098876953125,809.9631958007812,36.29377365112305,,False,
1783642898.8267243,2026-07-09T17:21:38,721076,20260709_172133,,,,,,ground_idle,,,,,,,,,False,-0.0041784849017858505,-0.01595114730298519,0.9987432360649109,0.24957922101020813,-0.31393182277679443,0.026410209015011787,0.0,-1.0,79.0,25.0,0.025,-0.2763081192970276,0.023069456219673157,0.026983704417943954,-0.0007073814631439745,-0.0025898979511111975,-0.0026583143044263124,-0.866625964641571,-0.1823035478591919,18.34194564819336,0.026983704417943954,-0.0026965460274368525,3.954522526328219e-06,0.0002075907977996394,3.969501495361328,70.0,0.0,0.0,0.0,0.0,0.0,32.766,0.28200000000000003,0.281,32.766,0.029,2018.542724609375,809.9601440429688,36.29880142211914,,False,
1783642898.8368645,2026-07-09T17:21:38,721083,20260709_172133,,,,,,ground_idle,,,,,,,,,False,-0.006482754368335009,-0.016139131039381027,0.9979423880577087,0.12046848982572556,-0.5218439102172852,0.13038574159145355,0.0,-1.0,79.0,25.0,0.025,-0.27630287408828735,0.02306869626045227,0.026083175092935562,-0.0008064883295446634,-0.0024525162298232317,-0.006771747022867203,-0.8649787306785583,-0.1796564757823944,18.34233283996582,0.026983704417943954,-0.0026965460274368525,3.954522526328219e-06,0.0002075907977996394,3.969501495361328,70.0,0.0,0.0,0.0,0.0,0.0,32.766,0.28200000000000003,0.281,32.766,0.029,2018.542724609375,809.9601440429688,36.29880142211914,,False,
1783642898.8470285,2026-07-09T17:21:38,721096,20260709_172133,,,,,,ground_idle,,,,,,,,,False,-0.0071660117246210575,-0.01674753800034523,0.9994897246360779,-0.06477990746498108,-0.11284077912569046,0.20854993164539337,0.0,0.0,96.0,25.0,0.025,-0.27630287408828735,0.02306869626045227,0.026083175092935562,-0.0008064883295446634,-0.0024525162298232317,-0.006771747022867203,-0.8649787306785583,-0.1796564757823944,18.34233283996582,0.026983704417943954,-0.0026965460274368525,3.954522526328219e-06,0.0002075907977996394,3.969501495361328,70.0,0.0,0.0,0.0,0.0,0.0,32.766,0.28200000000000003,0.281,32.766,0.029,2018.542724609375,809.9601440429688,36.29880142211914,,False,
1783642898.8571682,2026-07-09T17:21:38,721106,20260709_172133,,,,,,ground_idle,,,,,,,,,False,-0.005296732299029827,-0.017826881259679794,1.0005831718444824,0.19820936024188995,0.45050546526908875,-0.028298916295170784,0.0,0.0,91.0,25.0,0.025,-0.276653528213501,0.022952662780880928,0.02594488486647606,-0.0026858681812882423,-0.0031675228383392096,-0.007017833646386862,-0.8663515448570251,-0.16390079259872437,18.342252731323242,0.026983704417943954,-0.0026965460274368525,3.954522526328219e-06,0.0002075907977996394,3.969501495361328,70.0,0.0,0.0,0.0,0.0,0.0,32.766,0.28200000000000003,0.281,32.766,0.029,2018.542724609375,809.9601440429688,36.29880142211914,,False,
1783642898.8673089,2026-07-09T17:21:38,721116,20260709_172133,,,,,,ground_idle,,,,,,,,,False,-0.0034119924530386925,-0.017450431361794472,0.9973648190498352,0.23819327354431152,-0.22757937014102936,0.011175299063324928,0.0,-2.0,75.0,25.0,0.025,-0.276653528213501,0.022952662780880928,0.02594488486647606,-0.0026858681812882423,-0.0031675228383392096,-0.007017833646386862,-0.8663515448570251,-0.16390079259872437,18.342252731323242,0.025874963030219078,-0.007013171911239624,3.953757186536677e-06,0.0002075701777357608,3.9747800827026367,70.0,0.0,0.0,0.0,0.0,0.0,32.766,32.766,0.279,32.766,0.029,2018.542724609375,809.9601440429688,36.29880142211914,,False,
1783642898.8774471,2026-07-09T17:21:38,721126,20260709_172133,,,,,,ground_idle,,,,,,,,,False,-0.001460151164792478,-0.016449032351374626,0.9980079531669617,0.25362563133239746,-0.009522750973701477,-0.05045375972986221,3.0,-2.0,78.0,29.0,0.029,-0.275993674993515,0.023115653544664383,0.025807155296206474,0.00014346730313263834,-0.0026029422879219055,-0.007092402316629887,-0.8641139268875122,-0.19151908159255981,18.346614837646484,0.025874963030219078,-0.007013171911239624,3.953757186536677e-06,0.0002075701777357608,3.9747800827026367,70.0,0.0,0.0,0.0,0.0,0.0,32.766,32.766,0.279,32.766,0.029,2018.542724609375,809.9601440429688,36.29880142211914,,False,
1783642898.887585,2026-07-09T17:21:38,721136,20260709_172133,,,,,,ground_idle,,,,,,,,,False,-0.003128686221316457,-0.015696899965405464,0.9989511966705322,-0.237901508808136,-0.06248120591044426,-0.24887247383594513,-2.0,1.0,80.0,29.0,0.029,-0.275993674993515,0.023115653544664383,0.025807155296206474,0.00014346730313263834,-0.0026029422879219055,-0.007092402316629887,-0.8641139268875122,-0.19151908159255981,18.346614837646484,0.025874963030219078,-0.007013171911239624,3.953757186536677e-06,0.0002075701777357608,3.9747800827026367,70.0,0.0,0.0,0.0,0.0,0.0,32.766,32.766,0.279,32.766,0.029,2018.542724609375,809.9601440429688,36.29880142211914,,False,
1783642898.897723,2026-07-09T17:21:38,721146,20260709_172133,,,,,,ground_idle,,,,,,,,,False,-0.00547183770686388,-0.014080866239964962,0.9977474808692932,0.2472730129957199,-0.06699634343385696,0.23391711711883545,0.0,4.0,88.0,29.0,0.029,-0.27559012174606323,0.022944413125514984,0.027121542021632195,0.0020603083539754152,-0.003212881973013282,-0.000456390087492764,-0.8529133796691895,-0.20170488953590393,18.345945358276367,0.025874963030219078,-0.007013171911239624,3.953757186536677e-06,0.0002075701777357608,3.9747800827026367,70.0,0.0,0.0,0.0,0.0,0.0,32.766,32.766,0.279,32.766,0.029,2018.542724609375,809.9601440429688,36.29880142211914,,False,
1783642898.907866,2026-07-09T17:21:38,721156,20260709_172133,,,,,,ground_idle,,,,,,,,,False,-0.005292086862027645,-0.014438081532716751,0.9974458813667297,0.4506698250770569,0.05011909827589989,0.14464806020259857,-1.0,0.0,96.0,29.0,0.029,-0.27559012174606323,0.022944413125514984,0.027121542021632195,0.0020603083539754152,-0.003212881973013282,-0.000456390087492764,-0.8529133796691895,-0.20170488953590393,18.345945358276367,0.025874963030219078,-0.007013171911239624,3.953757186536677e-06,0.0002075701777357608,3.9747800827026367,70.0,0.0,0.0,0.0,0.0,0.0,32.766,32.766,0.279,32.766,0.029,2018.542724609375,809.9601440429688,36.29880142211914,,False,
1783642898.9180675,2026-07-09T17:21:38,721166,20260709_172133,,,,,,ground_idle,,,,,,,,,False,-0.006059278268367052,-0.014574351720511913,0.9967071413993835,-0.08421007543802261,-0.07540581375360489,-0.08033569157123566,0.0,-2.0,97.0,29.0,0.029,-0.27686819434165955,0.0228926669806242,0.027112549170851707,-0.003996575251221657,-0.0032734002452343702,-0.0008676396682858467,-0.8639508485794067,-0.160848930478096,18.342485427856445,0.027112549170851707,-0.0009089649538509548,3.953644409193657e-06,0.00020752608543261886,3.969501495361328,70.0,0.0,0.0,0.0,0.0,0.0,32.766,32.766,0.279,0.396,0.029,2018.44970703125,809.968505859375,36.303924560546875,,False,
1783642898.9282255,2026-07-09T17:21:38,721176,20260709_172133,,,,,,ground_idle,,,,,,,,,False,-0.004254709929227829,-0.013899717479944229,0.9994213581085205,0.14985479414463043,-0.2256297469139099,-0.006958658341318369,0.0,0.0,79.0,30.0,0.03,-0.27686819434165955,0.0228926669806242,0.027112549170851707,-0.003996575251221657,-0.0032734002452343702,-0.0008676396682858467,-0.8639508485794067,-0.160848930478096,18.342485427856445,0.027112549170851707,-0.0009089649538509548,3.953644409193657e-06,0.00020752608543261886,3.969501495361328,70.0,0.0,0.0,0.0,0.0,0.0,32.766,32.766,0.279,0.396,0.029,2018.44970703125,809.968505859375,36.303924560546875,,False,
1783642898.9383671,2026-07-09T17:21:38,721186,20260709_172133,,,,,,ground_idle,,,,,,,,,False,-0.0040690600872039795,-0.015168099664151669,1.0009474754333496,0.32462936639785767,-0.2043197900056839,0.3478080928325653,0.0,1.0,94.0,30.0,0.03,-0.2762967050075531,0.023060161620378494,0.028349952772259712,-0.0016938026528805494,-0.00213029095903039,0.004930736962705851,-0.8618153929710388,-0.18321241438388824,18.345666885375977,0.027112549170851707,-0.0009089649538509548,3.953644409193657e-06,0.00020752608543261886,3.969501495361328,70.0,0.0,0.0,0.0,0.0,0.0,32.766,32.766,0.279,0.396,0.029,2018.44970703125,809.968505859375,36.303924560546875,,False,
1783642898.9485173,2026-07-09T17:21:38,721196,20260709_172133,,,,,,ground_idle,,,,,,,,,False,-0.0020330706611275673,-0.015402485616505146,1.0004318952560425,0.11756342649459839,0.20539778470993042,0.05254434794187546,0.0,0.0,95.0,30.0,0.03,-0.2762967050075531,0.023060161620378494,0.028349952772259712,-0.0016938026528805494,-0.00213029095903039,0.004930736962705851,-0.8618153929710388,-0.18321241438388824,18.345666885375977,0.027112549170851707,-0.0009089649538509548,3.953644409193657e-06,0.00020752608543261886,3.969501495361328,70.0,0.0,0.0,0.0,0.0,0.0,32.766,32.766,0.279,0.396,0.029,2018.44970703125,809.968505859375,36.303924560546875,,False,
1783642898.958657,2026-07-09T17:21:38,721206,20260709_172133,,,,,,ground_idle,,,,,,,,,False,-0.0025948332622647285,-0.016109704971313477,0.9990903735160828,0.16727055609226227,0.2413991242647171,0.07046955078840256,0.0,0.0,94.0,30.0,0.03,-0.2766135334968567,0.022952286526560783,0.028449647128582,-0.002959463745355606,-0.002446079393848777,0.005109055433422327,-0.8579332828521729,-0.17244842648506165,18.346128463745117,0.027112549170851707,-0.0009089649538509548,3.953644409193657e-06,0.00020752608543261886,3.969501495361328,70.0,0.0,0.0,0.0,0.0,0.0,32.766,32.766,0.279,0.396,0.029,2018.44970703125,809.968505859375,36.303924560546875,,False,
1783642898.9687943,2026-07-09T17:21:38,721218,20260709_172133,,,,,,ground_idle,,,,,,,,,False,-0.0017455903580412269,-0.016770828515291214,1.0005139112472534,0.40681612491607666,-0.04116401448845863,-0.04125722497701645,0.0,-1.0,79.0,30.0,0.03,-0.2763223350048065,0.02302374318242073,0.028552111238241196,-0.0011279535247012973,-0.001948123681358993,0.005067395977675915,-0.8579332828521729,-0.17244842648506165,18.346128463745117,0.02850033901631832,0.004996616393327713,3.9536316762678325e-06,0.00020748852693941444,3.9747800827026367,70.0,0.0,0.0,0.0,0.0,0.0,32.766,32.766,0.279,0.396,0.027,2018.44970703125,809.968505859375,36.303924560546875,,False,
1783642898.9789934,2026-07-09T17:21:38,721226,20260709_172133,,,,,,ground_idle,,,,,,,,,False,-0.005483933258801699,-0.0169808529317379,0.9995887875556946,-0.23152419924736023,-0.5680435299873352,0.21595698595046997,0.0,0.0,75.0,30.0,0.03,-0.2763223350048065,0.02302374318242073,0.028552111238241196,-0.0011279535247012973,-0.001948123681358993,0.005067395977675915,-0.8582808375358582,-0.18665750324726105,18.34794044494629,0.02850033901631832,0.004996616393327713,3.9536316762678325e-06,0.00020748852693941444,3.9747800827026367,70.0,0.0,0.0,0.0,0.0,0.0,32.766,32.766,0.279,0.396,0.027,2018.44970703125,809.968505859375,36.303924560546875,,False,
1783642898.9891465,2026-07-09T17:21:38,721238,20260709_172133,,,,,,ground_idle,,,,,,,,,False,-0.003763446118682623,-0.016873018816113472,0.9992725253105164,-0.15759581327438354,-0.24092824757099152,0.02180151827633381,0.0,0.0,77.0,30.0,0.03,-0.27634772658348083,0.022988388314843178,0.029312971979379654,-0.0012206517858430743,-0.002357480116188526,0.008123448118567467,-0.8582808375358582,-0.18665750324726105,18.34794044494629,0.02850033901631832,0.004996616393327713,3.9536316762678325e-06,0.00020748852693941444,3.9747800827026367,70.0,0.0,0.0,0.0,0.0,0.0,32.766,32.766,0.279,0.396,0.027,2018.44970703125,809.968505859375,36.303924560546875,,False,
1783642898.9992876,2026-07-09T17:21:38,721246,20260709_172133,,,,,,ground_idle,,,,,,,,,False,-0.00356285716407001,-0.016058392822742462,0.9999446868896484,0.09044075012207031,-0.13827018439769745,0.2949390113353729,0.0,1.0,89.0,30.0,0.03,-0.27634772658348083,0.022988388314843178,0.029312971979379654,-0.0012206517858430743,-0.002357480116188526,0.008123448118567467,-0.8581876754760742,-0.18073754012584686,18.348798751831055,0.02850033901631832,0.004996616393327713,3.9536316762678325e-06,0.00020748852693941444,3.9747800827026367,70.0,0.0,0.0,0.0,0.0,0.0,32.766,32.766,0.279,0.396,0.027,2018.44970703125,809.968505859375,36.303924560546875,,False,
1783642899.0094283,2026-07-09T17:21:39,721258,20260709_172133,,,,,,ground_idle,,,,,,,,,False,-0.0058513060212135315,-0.016048021614551544,1.0001013278961182,0.1211799755692482,-0.30178380012512207,-0.003409027121961117,0.0,0.0,87.0,30.0,0.03,-0.2766980826854706,0.022873489186167717,0.029475772753357887,-0.002878282219171524,-0.003028922015801072,0.008208724670112133,-0.8581876754760742,-0.18073754012584686,18.348798751831055,0.02850033901631832,0.004996616393327713,3.9536316762678325e-06,0.00020748852693941444,3.9747800827026367,70.0,0.0,0.0,0.0,0.0,0.0,32.766,32.766,0.279,0.396,0.027,2018.44970703125,809.968505859375,36.303924560546875,,False,
1783642899.0195785,2026-07-09T17:21:39,721266,20260709_172133,,,,,,ground_idle,,,,,,,,,False,-0.005894224625080824,-0.017518041655421257,0.998024582862854,-0.1291659027338028,-0.42015913128852844,0.07144561409950256,0.0,0.0,93.0,30.0,0.03,-0.2766980826854706,0.022873489186167717,0.029475772753357887,-0.002878282219171524,-0.003028922015801072,0.008208724670112133,-0.856247067451477,-0.1644665002822876,18.34873390197754,0.029475772753357887,0.008167791180312634,3.953500254283426e-06,0.00020745606161653996,3.969501495361328,70.0,0.0,0.0,0.0,0.0,0.0,32.766,32.766,0.279,0.394,0.027,2018.482666015625,809.9656982421875,36.30478286743164,,False,
1783642899.0297213,2026-07-09T17:21:39,721278,20260709_172133,,,,,,ground_idle,,,,,,,,,False,-0.0053765797056257725,-0.01694917492568493,0.9991689324378967,-0.13585521280765533,0.06666489690542221,0.027134036645293236,0.0,-2.0,84.0,27.0,0.027,-0.2760172486305237,0.02304459549486637,0.028529994189739227,0.0002407281572232023,-0.002361828461289406,0.0024974714033305645,-0.856247067451477,-0.1644665002822876,18.34873390197754,0.029475772753357887,0.008167791180312634,3.953500254283426e-06,0.00020745606161653996,3.969501495361328,70.0,0.0,0.0,0.0,0.0,0.0,32.766,32.766,0.279,0.394,0.027,2018.482666015625,809.9656982421875,36.30478286743164,,False,
1783642899.039877,2026-07-09T17:21:39,721286,20260709_172133,,,,,,ground_idle,,,,,,,,,False,-0.005140619818121195,-0.01678856462240219,0.9986326098442078,-0.04607444629073143,-0.04439917579293251,-0.04837607964873314,0.0,2.0,94.0,27.0,0.027,-0.2760172486305237,0.02304459549486637,0.028529994189739227,0.0002407281572232023,-0.002361828461289406,0.0024974714033305645,-0.8578889966011047,-0.1892247498035431,18.35240364074707,0.029475772753357887,0.008167791180312634,3.953500254283426e-06,0.00020745606161653996,3.969501495361328,70.0,0.0,0.0,0.0,0.0,0.0,32.766,32.766,0.279,0.394,0.027,2018.482666015625,809.9656982421875,36.30478286743164,,False,
1783642899.0500429,2026-07-09T17:21:39,721300,20260709_172133,,,,,,ground_idle,,,,,,,,,False,-0.004382146988064051,-0.016519322991371155,0.9983149170875549,-0.22879883646965027,-0.3008565604686737,0.1986171007156372,0.0,0.0,84.0,27.0,0.027,-0.27671030163764954,0.02282814309000969,0.02857811003923416,-0.0031417140271514654,-0.003626358462497592,0.002253462327644229,-0.8588051795959473,-0.1638070046901703,18.353055953979492,0.029475772753357887,0.008167791180312634,3.953500254283426e-06,0.00020745606161653996,3.969501495361328,70.0,0.0,0.0,0.0,0.0,0.0,32.766,32.766,0.279,0.394,0.027,2018.482666015625,809.9656982421875,36.30478286743164,,False,
1783642899.0601854,2026-07-09T17:21:39,721306,20260709_172133,,,,,,ground_idle,,,,,,,,,False,-0.00639931857585907,-0.01810528337955475,0.9984497427940369,-0.24230486154556274,-0.030795903876423836,0.026902789250016212,0.0,0.0,91.0,27.0,0.027,-0.27671030163764954,0.02282814309000969,0.02857811003923416,-0.0031417140271514654,-0.003626358462497592,0.002253462327644229,-0.8588051795959473,-0.1638070046901703,18.353055953979492,0.029475772753357887,0.008167791180312634,3.953500254283426e-06,0.00020745606161653996,3.969501495361328,70.0,0.0,0.0,0.0,0.0,0.0,32.766,32.766,0.279,0.394,0.027,2018.482666015625,809.9656982421875,36.30478286743164,,False,
1783642899.0703235,2026-07-09T17:21:39,721318,20260709_172133,,,,,,ground_idle,,,,,,,,,False,-0.00508035346865654,-0.017498621717095375,0.9965804815292358,0.19095060229301453,0.22411298751831055,-0.03454969823360443,0.0,0.0,81.0,27.0,0.027,-0.2767774760723114,0.02274869568645954,0.028620239347219467,-0.003571394830942154,-0.004335896577686071,0.001892923261038959,-0.8588051795959473,-0.1638070046901703,18.353055953979492,0.028600076213479042,0.0020868340507149696,3.9532792470708955e-06,0.00020743245841003954,3.9747800827026367,70.0,0.0,0.0,0.0,0.0,0.0,32.766,0.281,0.28,0.394,0.03,2018.482666015625,809.9656982421875,36.30478286743164,,False,
1783642899.080462,2026-07-09T17:21:39,721326,20260709_172133,,,,,,ground_idle,,,,,,,,,False,-0.0020002753008157015,-0.015536351129412651,0.996260404586792,-0.08299104869365692,-0.17547304928302765,0.04247588291764259,0.0,-2.0,79.0,26.0,0.026,-0.2767774760723114,0.02274869568645954,0.028620239347219467,-0.003571394830942154,-0.004335896577686071,0.001892923261038959,-0.8597492575645447,-0.16145199537277222,18.352834701538086,0.028600076213479042,0.0020868340507149696,3.9532792470708955e-06,0.00020743245841003954,3.9747800827026367,70.0,0.0,0.0,0.0,0.0,0.0,32.766,0.281,0.28,0.394,0.03,2018.482666015625,809.9656982421875,36.30478286743164,,False,
1783642899.0906003,2026-07-09T17:21:39,721338,20260709_172133,,,,,,ground_idle,,,,,,,,,False,-0.001691088080406189,-0.01590435579419136,1.0002949237823486,-0.010872474871575832,-0.24423278868198395,-0.024757541716098785,0.0,0.0,79.0,26.0,0.026,-0.2760166823863983,0.022942861542105675,0.027460573241114616,0.0002698437019716948,-0.0030570183880627155,-0.004242281895130873,-0.8597492575645447,-0.16145199537277222,18.352834701538086,0.028600076213479042,0.0020868340507149696,3.9532792470708955e-06,0.00020743245841003954,3.9747800827026367,70.0,0.0,0.0,0.0,0.0,0.0,32.766,0.281,0.28,0.394,0.03,2018.482666015625,809.9656982421875,36.30478286743164,,False,
1783642899.100756,2026-07-09T17:21:39,721346,20260709_172133,,,,,,ground_idle,,,,,,,,,False,-0.005118160508573055,-0.015823347494006157,0.999036967754364,0.13914422690868378,-0.17166437208652496,-0.04359173774719238,0.0,2.0,90.0,26.0,0.026,-0.2760166823863983,0.022942861542105675,0.027460573241114616,0.0002698437019716948,-0.0030570183880627155,-0.004242281895130873,-0.8608664870262146,-0.18970321118831635,18.3563289642334,0.028600076213479042,0.0020868340507149696,3.9532792470708955e-06,0.00020743245841003954,3.9747800827026367,70.0,0.0,0.0,0.0,0.0,0.0,32.766,0.281,0.28,0.394,0.03,2018.482666015625,809.9656982421875,36.30478286743164,,False,
1783642899.1109955,2026-07-09T17:21:39,721360,20260709_172133,,,,,,ground_idle,,,,,,,,,False,-0.004307261202484369,-0.016869379207491875,0.999290406703949,-0.017656579613685608,-0.30915161967277527,0.062249522656202316,0.0,0.0,93.0,26.0,0.026,-0.276785671710968,0.022702984511852264,0.027375051751732826,-0.00333574041724205,-0.004246523138135672,-0.004368358291685581,-0.8590161204338074,-0.16075637936592102,18.3533878326416,0.028600076213479042,0.0020868340507149696,3.9532792470708955e-06,0.00020743245841003954,3.9747800827026367,70.0,0.0,0.0,0.0,0.0,0.0,32.766,0.281,0.28,0.394,0.03,2018.482666015625,809.9656982421875,36.30478286743164,,False,
1783642899.1213865,2026-07-09T17:21:39,721366,20260709_172133,,,,,,ground_idle,,,,,,,,,False,-0.0023871432058513165,-0.016205664724111557,1.0020244121551514,0.4004071354866028,-0.013513633981347084,0.2603466808795929,0.0,-1.0,99.0,26.0,0.026,-0.276785671710968,0.022702984511852264,0.027375051751732826,-0.00333574041724205,-0.004246523138135672,-0.004368358291685581,-0.8590161204338074,-0.16075637936592102,18.3533878326416,0.027375051751732826,-0.004425170831382275,3.9530509639007505e-06,0.00020741726621054113,3.969501495361328,70.0,0.0,0.0,0.0,0.0,0.0,32.766,0.281,0.28,32.766,0.03,2018.5535888671875,809.9592895507812,36.31206130981445,,False,
1783642899.1315622,2026-07-09T17:21:39,721380,20260709_172133,,,,,,ground_idle,,,,,,,,,False,-0.0028748747427016497,-0.01639527641236782,0.999796450138092,0.18660466372966766,0.08779740333557129,0.07227956503629684,0.0,0.0,80.0,27.0,0.027,-0.27639663219451904,0.02278919704258442,0.027146922424435616,-0.0012032224331051111,-0.003621390089392662,-0.004913371987640858,-0.8555629253387451,-0.1763591766357422,18.355533599853516,0.027375051751732826,-0.004425170831382275,3.9530509639007505e-06,0.00020741726621054113,3.969501495361328,70.0,0.0,0.0,0.0,0.0,0.0,32.766,0.281,0.28,32.766,0.03,2018.5535888671875,809.9592895507812,36.31206130981445,,False,
1783642899.1416996,2026-07-09T17:21:39,721386,20260709_172133,,,,,,ground_idle,,,,,,,,,False,-0.005485849920660257,-0.01729317381978035,0.9992915987968445,-0.027527540922164917,-0.32512620091438293,0.03662452474236488,0.0,1.0,98.0,27.0,0.027,-0.27639663219451904,0.02278919704258442,0.027146922424435616,-0.0012032224331051111,-0.003621390089392662,-0.004913371987640858,-0.8555629253387451,-0.1763591766357422,18.355533599853516,0.027375051751732826,-0.004425170831382275,3.9530509639007505e-06,0.00020741726621054113,3.969501495361328,70.0,0.0,0.0,0.0,0.0,0.0,32.766,0.281,0.28,32.766,0.03,2018.5535888671875,809.9592895507812,36.31206130981445,,False,
1783642899.1518323,2026-07-09T17:21:39,721400,20260709_172133,,,,,,ground_idle,,,,,,,,,False,-0.005231681279838085,-0.015155306085944176,0.9987121224403381,-0.14367027580738068,-0.03491100296378136,-0.06228915601968765,0.0,0.0,95.0,27.0,0.027,-0.2767942547798157,0.022658836096525192,0.027047384530305862,-0.003174759214743972,-0.004326394759118557,-0.005035085137933493,-0.857543408870697,-0.161188542842865,18.355117797851562,0.027375051751732826,-0.004425170831382275,3.9530509639007505e-06,0.00020741726621054113,3.969501495361328,70.0,0.0,0.0,0.0,0.0,0.0,32.766,0.281,0.28,32.766,0.03,2018.5535888671875,809.9592895507812,36.31206130981445,,False,
1783642899.1620195,2026-07-09T17:21:39,721411,20260709_172133,,,,,,ground_idle,,,,,,,,,False,-0.004911988507956266,-0.015242151916027069,0.9977430105209351,0.41339805722236633,0.08864767104387283,0.03524399176239967,0.0,0.0,87.0,27.0,0.027,-0.2767942547798157,0.022658836096525192,0.027047384530305862,-0.003174759214743972,-0.004326394759118557,-0.005035085137933493,-0.857543408870697,-0.161188542842865,18.355117797851562,0.026996072381734848,-0.005286534316837788,3.9528908928332385e-06,0.0002074099174933508,3.969501495361328,70.0,0.0,0.0,0.0,0.0,0.0,32.766,0.281,0.28,32.766,0.03,2018.5535888671875,809.9592895507812,36.31206130981445,,False,
1783642899.1721523,2026-07-09T17:21:39,721420,20260709_172133,,,,,,ground_idle,,,,,,,,,False,-0.0035330180544406176,-0.01615319401025772,1.0020976066589355,0.1300038844347,-0.2722683846950531,0.057621680200099945,0.0,-1.0,79.0,27.0,0.027,-0.27641060948371887,0.022762330248951912,0.02694612182676792,-0.001360904541797936,-0.00362931820563972,-0.005178386345505714,-0.8572250008583069,-0.17944186925888062,18.357463836669922,0.026996072381734848,-0.005286534316837788,3.9528908928332385e-06,0.0002074099174933508,3.9747800827026367,70.0,0.0,0.0,0.0,0.0,0.0,32.766,0.276,0.28200000000000003,32.766,0.027,2018.5535888671875,809.9592895507812,36.31206130981445,,False,
1783642899.1822886,2026-07-09T17:21:39,721426,20260709_172133,,,,,,ground_idle,,,,,,,,,False,-0.005082872696220875,-0.015571669675409794,0.999944806098938,0.4076527953147888,-0.3873918652534485,-0.052049942314624786,0.0,-1.0,83.0,26.0,0.026,-0.27641060948371887,0.022762330248951912,0.02694612182676792,-0.001360904541797936,-0.00362931820563972,-0.005178386345505714,-0.8572250008583069,-0.17944186925888062,18.357463836669922,0.026996072381734848,-0.005286534316837788,3.9528908928332385e-06,0.0002074099174933508,3.9747800827026367,70.0,0.0,0.0,0.0,0.0,0.0,32.766,0.276,0.28200000000000003,32.766,0.027,2018.5535888671875,809.9592895507812,36.31206130981445,,False,
1783642899.1924214,2026-07-09T17:21:39,721440,20260709_172133,,,,,,ground_idle,,,,,,,,,False,-0.002692766487598419,-0.01555117592215538,0.9961473941802979,-0.08177268505096436,-0.0724126473069191,-0.005190862342715263,0.0,0.0,79.0,26.0,0.026,-0.2760292589664459,0.022850656881928444,0.02641316130757332,0.00021863005531486124,-0.0030277338810265064,-0.007278811186552048,-0.8556743860244751,-0.1899838149547577,18.35774040222168,0.026996072381734848,-0.005286534316837788,3.9528908928332385e-06,0.0002074099174933508,3.9747800827026367,70.0,0.0,0.0,0.0,0.0,0.0,32.766,0.276,0.28200000000000003,32.766,0.027,2018.5535888671875,809.9592895507812,36.31206130981445,,False,
1783642899.202559,2026-07-09T17:21:39,721446,20260709_172133,,,,,,ground_idle,,,,,,,,,False,-0.006202911492437124,-0.016279758885502815,0.9988111853599548,0.009553254581987858,0.13874980807304382,0.07310560345649719,0.0,3.0,91.0,26.0,0.026,-0.2760292589664459,0.022850656881928444,0.02641316130757332,0.00021863005531486124,-0.0030277338810265064,-0.007278811186552048,-0.8556743860244751,-0.1899838149547577,18.35774040222168,0.026996072381734848,-0.005286534316837788,3.9528908928332385e-06,0.0002074099174933508,3.9747800827026367,70.0,0.0,0.0,0.0,0.0,0.0,32.766,0.276,0.28200000000000003,32.766,0.027,2018.5535888671875,809.9592895507812,36.31206130981445,,False,
1783642899.2127025,2026-07-09T17:21:39,721460,20260709_172133,,,,,,arming,,,,,,,,,False,-0.004232238046824932,-0.015764916315674782,0.9983299970626831,-0.010505683720111847,0.13018853962421417,0.24991682171821594,0.0,-2.0,94.0,26.0,0.026,-0.2763882875442505,0.022783007472753525,0.026269255205988884,-0.001504636136814952,-0.003356435103341937,-0.007581618148833513,-0.8586173057556152,-0.17944620549678802,18.35780143737793,0.026996072381734848,-0.005286534316837788,3.9528908928332385e-06,0.0002074099174933508,3.9747800827026367,70.0,0.0,0.0,0.0,0.0,0.0,32.766,0.276,0.28200000000000003,32.766,0.027,2018.5535888671875,809.9592895507812,36.31206130981445,,False,
1783642899.222889,2026-07-09T17:21:39,721466,20260709_172133,,,,,,arming,,,,,,,,,False,-0.0028327812906354666,-0.015128899365663528,1.0004132986068726,0.006794394925236702,0.08658942580223083,-0.09833456575870514,0.0,0.0,94.0,26.0,0.026,-0.2763882875442505,0.022783007472753525,0.026269255205988884,-0.001504636136814952,-0.003356435103341937,-0.007581618148833513,-0.8586173057556152,-0.17944620549678802,18.35780143737793,0.026269255205988884,-0.007629163097590208,3.952751740143867e-06,0.00020740050240419805,3.9747800827026367,70.0,0.0,0.0,0.0,0.0,0.0,32.766,0.276,0.28200000000000003,0.393,0.027,2018.433349609375,809.97021484375,36.3165397644043,,False,
1783642899.23322,2026-07-09T17:21:39,721480,20260709_172133,,,,,,arming,,,,,,,,,False,-0.003049182705581188,-0.016025623306632042,0.9988899827003479,0.021051667630672455,-0.003618592396378517,-0.1319962739944458,0.0,0.0,76.0,26.0,0.026,-0.27641746401786804,0.02271466702222824,0.026033269241452217,-0.001438105828128755,-0.0034193997271358967,-0.008053196594119072,-0.8567870855331421,-0.17954443395137787,18.357248306274414,0.026269255205988884,-0.007629163097590208,3.952751740143867e-06,0.00020740050240419805,3.9747800827026367,70.0,0.0,0.0,0.0,0.0,0.0,32.766,0.276,0.28200000000000003,0.393,0.027,2018.433349609375,809.97021484375,36.3165397644043,,False,
1783642899.243427,2026-07-09T17:21:39,721493,20260709_172133,,,,,,arming,,,,,,,,,False,-0.00567672960460186,-0.017587145790457726,0.9990655183792114,-0.05254935100674629,0.02239064686000347,0.01349519845098257,0.0,0.0,93.0,26.0,0.026,-0.27641746401786804,0.02271466702222824,0.026033269241452217,-0.001438105828128755,-0.0034193997271358967,-0.008053196594119072,-0.8567870855331421,-0.17954443395137787,18.357248306274414,0.026269255205988884,-0.007629163097590208,3.952751740143867e-06,0.00020740050240419805,3.9747800827026367,70.0,0.0,0.0,0.0,0.0,0.0,32.766,0.276,0.28200000000000003,0.393,0.027,2018.433349609375,809.97021484375,36.3165397644043,,False,
1783642899.2535799,2026-07-09T17:21:39,721503,20260709_172133,,,,,,arming,,,,,,,,,False,-0.005875890608876944,-0.01745389960706234,0.999937891960144,0.04653378203511238,-0.04498356208205223,0.12720191478729248,0.0,0.0,91.0,26.0,0.026,-0.2764471471309662,0.02264213375747204,0.02586972713470459,-0.0015906858025118709,-0.0038743293844163418,-0.008257889188826084,-0.8514535427093506,-0.17601461708545685,18.357351303100586,0.026269255205988884,-0.007629163097590208,3.952751740143867e-06,0.00020740050240419805,3.9747800827026367,70.0,0.0,0.0,0.0,0.0,0.0,32.766,0.276,0.28200000000000003,0.393,0.027,2018.433349609375,809.97021484375,36.3165397644043,,False,
1783642899.2637146,2026-07-09T17:21:39,721513,20260709_172133,,,,,,arming,,,,,,,,,False,-0.005875890608876944,-0.01745389960706234,0.999937891960144,0.04653378203511238,-0.04498356208205223,0.12720191478729248,0.0,0.0,94.0,26.0,0.026,-0.2764471471309662,0.02264213375747204,0.02586972713470459,-0.0015906858025118709,-0.0038743293844163418,-0.008257889188826084,-0.8514535427093506,-0.17601461708545685,18.357351303100586,0.025786852464079857,-0.008375750854611397,3.952709448640235e-06,0.00020740697800647467,3.9747800827026367,70.0,0.0,7000.0,7000.0,7000.0,7000.0,32.766,0.276,0.28200000000000003,0.393,0.027,2018.433349609375,809.97021484375,36.3165397644043,,False,
1783642899.273848,2026-07-09T17:21:39,721523,20260709_172133,,,,,,arming,,,,,,,,,False,-0.00602415855973959,-0.0164960790425539,1.0015989542007446,0.15988707542419434,0.0979885458946228,-0.182946115732193,0.0,0.0,93.0,26.0,0.026,-0.2764829695224762,0.02255842462182045,0.02570398896932602,-0.0020456991624087095,-0.004469991195946932,-0.008255870081484318,-0.8498281240463257,-0.17281804978847504,18.35788345336914,0.025786852464079857,-0.008375750854611397,3.952709448640235e-06,0.00020740697800647467,3.9747800827026367,70.0,0.0,7000.0,7000.0,7000.0,7000.0,32.766,32.766,0.28200000000000003,0.393,0.031,2018.433349609375,809.97021484375,36.3165397644043,,False,
1783642899.2842329,2026-07-09T17:21:39,721533,20260709_172133,,,,,,arming,,,,,,,,,False,-0.004727390129119158,-0.014847911894321442,1.000095009803772,0.088092140853405,-0.35521769523620605,-0.043320026248693466,0.0,-1.0,81.0,27.0,0.027,-0.2764829695224762,0.02255842462182045,0.02570398896932602,-0.0020456991624087095,-0.004469991195946932,-0.008255870081484318,-0.8498281240463257,-0.17281804978847504,18.35788345336914,0.025786852464079857,-0.008375750854611397,3.952709448640235e-06,0.00020740697800647467,3.9747800827026367,70.0,0.0,7000.0,7000.0,7000.0,7000.0,32.766,32.766,0.28200000000000003,0.393,0.031,2018.433349609375,809.97021484375,36.3165397644043,,False,
1783642899.2943933,2026-07-09T17:21:39,721543,20260709_172133,,,,,,arming,,,,,,,,,False,-0.004964496474713087,-0.015033379197120667,0.9979945421218872,-0.21774065494537354,-0.07851002365350723,-0.22588060796260834,0.0,0.0,79.0,27.0,0.027,-0.2760150730609894,0.022702377289533615,0.026131797581911087,-0.0003414785605855286,-0.003787026274949312,-0.0052893576212227345,-0.8507293462753296,-0.18848326802253723,18.357900619506836,0.025786852464079857,-0.008375750854611397,3.952709448640235e-06,0.00020740697800647467,3.9747800827026367,70.0,0.0,7000.0,7000.0,7000.0,7000.0,32.766,32.766,0.28200000000000003,0.393,0.031,2018.433349609375,809.97021484375,36.3165397644043,,False,
1783642899.304543,2026-07-09T17:21:39,721553,20260709_172133,,,,,,arming,,,,,,,,,False,-0.0058867838233709335,-0.016450602561235428,1.0016701221466064,-0.038117047399282455,0.07288731634616852,0.045918773859739304,0.0,3.0,90.0,27.0,0.027,-0.2760150730609894,0.022702377289533615,0.026131797581911087,-0.0003414785605855286,-0.003787026274949312,-0.0052893576212227345,-0.8507293462753296,-0.18848326802253723,18.357900619506836,0.025786852464079857,-0.008375750854611397,3.952709448640235e-06,0.00020740697800647467,3.9747800827026367,70.0,0.0,7000.0,7000.0,7000.0,7000.0,32.766,32.766,0.28200000000000003,0.393,0.031,2018.433349609375,809.97021484375,36.3165397644043,,False,
1783642899.3146908,2026-07-09T17:21:39,721563,20260709_172133,,,,,,arming,,,,,,,,,False,-0.0058867838233709335,-0.016450602561235428,1.0016701221466064,-0.038117047399282455,0.07288731634616852,0.045918773859739304,0.0,-2.0,91.0,27.0,0.027,-0.27643465995788574,0.022652799263596535,0.026030348613858223,-0.002266509225592017,-0.0038655544631183147,-0.005362934432923794,-0.8563182353973389,-0.17460153996944427,18.3581600189209,0.026030348613858223,-0.005416748113930225,3.952649876737269e-06,0.0002074011426884681,3.969501495361328,70.0,0.0,7000.0,7000.0,7000.0,7000.0,32.766,32.766,0.28200000000000003,0.392,0.031,2018.433349609375,809.97021484375,36.3165397644043,,False,
1783642899.3248508,2026-07-09T17:21:39,721573,20260709_172133,,,,,,arming,,,,,,,,,False,-0.003603677498176694,-0.015918036922812462,1.0006961822509766,0.16566601395606995,0.09161800146102905,0.03139977902173996,0.0,0.0,91.0,27.0,0.027,-0.27643465995788574,0.022652799263596535,0.026030348613858223,-0.002266509225592017,-0.0038655544631183147,-0.005362934432923794,-0.8563182353973389,-0.17460153996944427,18.3581600189209,0.026030348613858223,-0.005416748113930225,3.952649876737269e-06,0.0002074011426884681,3.969501495361328,70.0,0.0,7000.0,7000.0,7000.0,7000.0,32.766,32.766,0.28200000000000003,0.392,0.031,2018.400634765625,809.9727783203125,36.32038116455078,,False,
1783642899.335041,2026-07-09T17:21:39,721583,20260709_172133,,,,,,arming,,,,,,,,,False,-0.0032813844736665487,-0.015581564046442509,0.9975979924201965,0.12970608472824097,0.33351242542266846,-0.10048221796751022,0.0,0.0,81.0,26.0,0.026,-0.27648305892944336,0.02257126197218895,0.025933703407645226,-0.002509777434170246,-0.0042344145476818085,-0.005275111645460129,-0.8544545769691467,-0.1730881929397583,18.35496711730957,0.026030348613858223,-0.005416748113930225,3.952649876737269e-06,0.0002074011426884681,3.969501495361328,70.0,0.0,7000.0,7000.0,7000.0,7000.0,32.766,32.766,0.28200000000000003,0.392,0.031,2018.400634765625,809.9727783203125,36.32038116455078,,False,
1783642899.345179,2026-07-09T17:21:39,721593,20260709_172133,,,,,,arming,,,,,,,,,False,-0.00278626661747694,-0.01687365397810936,0.9979471564292908,0.05807947739958763,-0.022073514759540558,-0.04341822490096092,0.0,0.0,90.0,26.0,0.026,-0.27648305892944336,0.02257126197218895,0.025933703407645226,-0.002509777434170246,-0.0042344145476818085,-0.005275111645460129,-0.8544545769691467,-0.1730881929397583,18.35496711730957,0.026030348613858223,-0.005416748113930225,3.952649876737269e-06,0.0002074011426884681,3.969501495361328,70.0,0.0,7000.0,7000.0,7000.0,7000.0,32.766,32.766,0.28200000000000003,0.392,0.031,2018.400634765625,809.9727783203125,36.32038116455078,,False,
1783642899.3553128,2026-07-09T17:21:39,721603,20260709_172133,,,,,,arming,,,,,,,,,False,-0.004698483739048243,-0.01736333779990673,0.9963913559913635,0.2222500890493393,0.17693261802196503,-0.3871958553791046,0.0,1.0,90.0,26.0,0.026,-0.27692314982414246,0.02243048883974552,0.025825468823313713,-0.00414633471518755,-0.004691214766353369,-0.00553280021995306,-0.8548162579536438,-0.16324813663959503,18.355466842651367,0.026030348613858223,-0.005416748113930225,3.952649876737269e-06,0.0002074011426884681,3.969501495361328,70.0,0.0,7000.0,7000.0,7000.0,7000.0,32.766,32.766,0.28200000000000003,0.392,0.031,2018.400634765625,809.9727783203125,36.32038116455078,,False,
1783642899.3654466,2026-07-09T17:21:39,721613,20260709_172133,,,,,,arming,,,,,,,,,False,-0.0011113063665106893,-0.015343407168984413,0.9996837377548218,-0.08782576769590378,-0.029346130788326263,-0.5147576332092285,0.0,-1.0,91.0,26.0,0.026,-0.27692314982414246,0.02243048883974552,0.025825468823313713,-0.00414633471518755,-0.004691214766353369,-0.00553280021995306,-0.8548162579536438,-0.16324813663959503,18.355466842651367,0.025770902633666992,-0.005853726994246244,3.9526403270429e-06,0.0002074013027595356,3.9747800827026367,70.0,0.0,7000.0,7000.0,7000.0,7000.0,32.766,32.766,0.281,0.392,0.028,2018.400634765625,809.9727783203125,36.32038116455078,,False,
1783642899.3755825,2026-07-09T17:21:39,721623,20260709_172133,,,,,,arming,,,,,,,,,False,-0.0018854673253372312,-0.01415962539613247,0.9990968704223633,0.444532573223114,-0.3755849301815033,0.891435980796814,0.0,1.0,91.0,26.0,0.026,-0.27682989835739136,0.02251366898417473,0.0257119070738554,-0.003367824712768197,-0.004274127539247274,-0.005905400030314922,-0.8565314412117004,-0.16755107045173645,18.352842330932617,0.025770902633666992,-0.005853726994246244,3.9526403270429e-06,0.0002074013027595356,3.9747800827026367,70.0,0.0,7000.0,7000.0,7000.0,7000.0,32.766,32.766,0.281,0.392,0.028,2018.400634765625,809.9727783203125,36.32038116455078,,False,
1783642899.3857133,2026-07-09T17:21:39,721633,20260709_172133,,,,,,arming,,,,,,,,,False,-0.008016039617359638,-0.01777399145066738,0.9982578158378601,0.4862782061100006,0.050069525837898254,0.44088801741600037,1.0,-2.0,81.0,27.0,0.027,-0.27682989835739136,0.02251366898417473,0.0257119070738554,-0.003367824712768197,-0.004274127539247274,-0.005905400030314922,-0.8565314412117004,-0.16755107045173645,18.352842330932617,0.025770902633666992,-0.005853726994246244,3.9526403270429e-06,0.0002074013027595356,3.9747800827026367,70.0,0.0,7000.0,7000.0,7000.0,7000.0,32.766,32.766,0.281,0.392,0.028,2018.400634765625,809.9727783203125,36.32038116455078,,False,
1783642899.3958445,2026-07-09T17:21:39,721643,20260709_172133,,,,,,arming,,,,,,,,,False,-0.003166364738717675,-0.01620505377650261,0.9988124370574951,-0.11760964244604111,0.719372570514679,-0.8756664991378784,0.0,0.0,78.0,27.0,0.027,-0.27589836716651917,0.022356245666742325,0.026181666180491447,0.0002954618539661169,-0.0047309501096606255,-0.0032753499690443277,-0.8418163657188416,-0.19352605938911438,18.352981567382812,0.025770902633666992,-0.005853726994246244,3.9526403270429e-06,0.0002074013027595356,3.9747800827026367,70.0,0.0,7000.0,7000.0,7000.0,7000.0,32.766,32.766,0.281,0.392,0.028,2018.400634765625,809.9727783203125,36.32038116455078,,False,
1783642899.4061637,2026-07-09T17:21:39,721653,20260709_172133,,,,,,arming,,,,,,,,,False,-0.0013438062742352486,-0.01768370531499386,0.9977633357048035,-0.34650200605392456,0.002875756938010454,-0.980154812335968,0.0,2.0,91.0,27.0,0.027,-0.27589836716651917,0.022356245666742325,0.026181666180491447,0.0002954618539661169,-0.0047309501096606255,-0.0032753499690443277,-0.8418163657188416,-0.19352605938911438,18.352981567382812,0.025770902633666992,-0.005853726994246244,3.9526403270429e-06,0.0002074013027595356,3.9747800827026367,70.0,0.0,7000.0,7000.0,7000.0,7000.0,32.766,32.766,0.281,0.392,0.028,2018.400634765625,809.9727783203125,36.32038116455078,,False,
1783642899.4163485,2026-07-09T17:21:39,721663,20260709_172133,,,,,,arming,,,,,,,,,False,-0.006800408940762281,-0.013719994574785233,0.9975942373275757,-0.014870421960949898,-0.7496317028999329,0.048976536840200424,-1.0,0.0,94.0,27.0,0.027,-0.276774525642395,0.02256370335817337,0.026115039363503456,-0.0030798125080764294,-0.003761597676202655,-0.003570814384147525,-0.8582341074943542,-0.17218327522277832,18.354297637939453,0.026115039363503456,-0.0036216978915035725,3.9526426007796545e-06,0.00020739650062751025,3.9536657333374023,60.0,0.0,7000.0,7000.0,7000.0,7000.0,32.766,32.766,0.281,32.766,0.028,2018.400634765625,809.9727783203125,36.32038116455078,,False,
1783642899.426491,2026-07-09T17:21:39,721676,20260709_172133,,,,,,arming,,,,,,,,,False,0.0004760560696013272,-0.018337100744247437,0.9975897073745728,0.17654867470264435,0.1154523715376854,0.41231268644332886,1.0,-1.0,84.0,27.0,0.027,-0.276774525642395,0.02256370335817337,0.026115039363503456,-0.0030798125080764294,-0.003761597676202655,-0.003570814384147525,-0.8582341074943542,-0.17218327522277832,18.354297637939453,0.026115039363503456,-0.0036216978915035725,3.9526426007796545e-06,0.00020739650062751025,3.9536657333374023,60.0,0.0,7000.0,7000.0,7000.0,7000.0,32.766,32.766,0.281,32.766,0.028,2018.493408203125,809.96484375,36.324771881103516,,False,
1783642899.4366293,2026-07-09T17:21:39,721683,20260709_172133,,,,,,arming,,,,,,,,,False,-0.002994560170918703,-0.010113242082297802,1.0002225637435913,0.3665921688079834,0.40437811613082886,0.11271392554044724,1.0,-1.0,84.0,27.0,0.027,-0.2762863039970398,0.022301778197288513,0.02644156478345394,-0.00101739470846951,-0.0047363704070448875,-0.0018822688143700361,-0.8454734683036804,-0.1845635175704956,18.355073928833008,0.026115039363503456,-0.0036216978915035725,3.9526426007796545e-06,0.00020739650062751025,3.9536657333374023,60.0,0.0,7000.0,7000.0,7000.0,7000.0,32.766,32.766,0.281,32.766,0.028,2018.493408203125,809.96484375,36.324771881103516,,False,
1783642899.4467678,2026-07-09T17:21:39,721696,20260709_172133,,,,,,arming,,,,,,,,,False,-0.001280487864278257,-0.01703498698771,1.001432180404663,0.2609785199165344,-0.275594562292099,1.0191614627838135,0.0,0.0,100.0,27.0,0.027,-0.2762863039970398,0.022301778197288513,0.02644156478345394,-0.00101739470846951,-0.0047363704070448875,-0.0018822688143700361,-0.8454734683036804,-0.1845635175704956,18.355073928833008,0.026115039363503456,-0.0036216978915035725,3.9526426007796545e-06,0.00020739650062751025,3.9536657333374023,60.0,0.0,7000.0,7000.0,7000.0,7000.0,32.766,32.766,0.281,32.766,0.028,2018.493408203125,809.96484375,36.324771881103516,,False,
1783642899.4569085,2026-07-09T17:21:39,721703,20260709_172133,,,,,,arming,,,,,,,,,False,-0.006735464558005333,-0.013857422396540642,1.000403642654419,-0.18292966485023499,0.7251366972923279,-0.42168840765953064,0.0,0.0,100.0,27.0,0.027,-0.2763745188713074,0.022653765976428986,0.026405466720461845,-0.0011520921252667904,-0.002626788103953004,-0.0017335520824417472,-0.8561766743659973,-0.19104579091072083,18.352798461914062,0.026115039363503456,-0.0036216978915035725,3.9526426007796545e-06,0.00020739650062751025,3.9536657333374023,60.0,0.0,7000.0,7000.0,7000.0,7000.0,32.766,32.766,0.281,32.766,0.028,2018.493408203125,809.96484375,36.324771881103516,,False,
1783642899.4671762,2026-07-09T17:21:39,721716,20260709_172133,,,,,,arming,,,,,,,,,False,-0.007604038808494806,-0.017796238884329796,0.9961512088775635,0.1839136928319931,0.4130827486515045,-0.5989224910736084,0.0,1.0,90.0,27.0,0.027,-0.2763745188713074,0.022653765976428986,0.026405466720461845,-0.0011520921252667904,-0.002626788103953004,-0.0017335520824417472,-0.8561766743659973,-0.19104579091072083,18.352798461914062,0.026388350874185562,-0.0017285727662965655,3.9526621549157426e-06,0.00020739942556247115,3.958944320678711,60.0,0.0,7000.0,7000.0,7000.0,7000.0,32.766,32.766,0.28,32.766,0.027,2018.493408203125,809.96484375,36.324771881103516,,False,
1783642899.4773107,2026-07-09T17:21:39,721726,20260709_172133,,,,,,arming,,,,,,,,,False,-0.002428598003461957,-0.01359363179653883,0.9983423948287964,-0.0885782390832901,0.44719234108924866,-1.565829873085022,0.0,-1.0,84.0,31.0,0.031,-0.27673667669296265,0.022532310336828232,0.026369430124759674,-0.0027271846774965525,-0.003418952925130725,-0.0020475611090660095,-0.8567200303077698,-0.18246307969093323,18.349878311157227,0.026388350874185562,-0.0017285727662965655,3.9526621549157426e-06,0.00020739942556247115,3.958944320678711,60.0,0.0,7000.0,7000.0,7000.0,7000.0,32.766,32.766,0.28,32.766,0.027,2018.493408203125,809.96484375,36.324771881103516,,False,
1783642899.487449,2026-07-09T17:21:39,721736,20260709_172133,,,,,,arming,,,,,,,,,False,-0.006110329180955887,-0.01573874056339264,0.9978340268135071,0.22945153713226318,0.49376630783081055,0.3820297420024872,0.0,-2.0,79.0,31.0,0.031,-0.27673667669296265,0.022532310336828232,0.026369430124759674,-0.0027271846774965525,-0.003418952925130725,-0.0020475611090660095,-0.8567200303077698,-0.18246307969093323,18.349878311157227,0.026388350874185562,-0.0017285727662965655,3.9526621549157426e-06,0.00020739942556247115,3.958944320678711,60.0,0.0,7000.0,7000.0,7000.0,7000.0,32.766,32.766,0.28,32.766,0.027,2018.493408203125,809.96484375,36.324771881103516,,False,
1783642899.497593,2026-07-09T17:21:39,721746,20260709_172133,,,,,,arming,,,,,,,,,False,-0.0063715833239257336,-0.015226487070322037,0.9979665279388428,0.27219823002815247,0.38306427001953125,0.2452649623155594,0.0,3.0,95.0,31.0,0.031,1.3123541066306643e-05,-2.681186060726759e-06,-2.9682996682822704e-07,0.0020256966818124056,-0.0008851101738400757,-9.894545655697584e-05,0.0010554420296102762,-0.002614544704556465,0.004002145491540432,0.026388350874185562,-0.0017285727662965655,3.9526621549157426e-06,0.00020739942556247115,3.958944320678711,60.0,0.0,7000.0,7000.0,7000.0,7000.0,32.766,32.766,0.28,32.766,0.027,2018.493408203125,809.96484375,36.324771881103516,,False,
1783642899.5077372,2026-07-09T17:21:39,721756,20260709_172133,,,,,,arming,,,,,,,,,False,-0.0053483168594539165,-0.017959387972950935,0.999100387096405,-0.24039040505886078,0.3938928246498108,-0.021686311811208725,0.0,0.0,99.0,31.0,0.031,1.3123541066306643e-05,-2.681186060726759e-06,-2.9682996682822704e-07,0.0020256966818124056,-0.0008851101738400757,-9.894545655697584e-05,0.0010554420296102762,-0.002614544704556465,0.004002145491540432,0.026388350874185562,-0.0017285727662965655,3.9526621549157426e-06,0.00020739942556247115,3.958944320678711,60.0,0.0,7000.0,7000.0,7000.0,7000.0,32.766,32.766,0.28,32.766,0.027,2018.493408203125,809.96484375,36.324771881103516,,False,
1783642899.5178869,2026-07-09T17:21:39,721766,20260709_172133,,,,,,arming,,,,,,,,,False,-0.008399609476327896,-0.01917334832251072,0.9983768463134766,0.23610791563987732,0.6893340945243835,-0.714555025100708,0.0,0.0,96.0,31.0,0.031,-3.101889888057485e-05,-5.195311678107828e-05,0.566570520401001,-0.0020181508734822273,-0.004047176335006952,-0.00042881458648480475,0.002660910366103053,0.0055277226492762566,6.161522469483316e-05,0.566570520401001,-0.00042843277333304286,0.788002073764801,0.00013199994282331318,3.958944320678711,60.0,0.0,7000.0,7000.0,7000.0,7000.0,32.766,32.766,0.28,32.766,0.027,2018.44970703125,809.9684448242188,36.32807922363281,,False,
1783642899.52806,2026-07-09T17:21:39,721778,20260709_172133,,,,,,arming,,,,,,,,,False,-0.004021058790385723,-0.014350758865475655,0.9995415210723877,0.17269004881381989,-0.32542431354522705,-0.7648255825042725,0.0,-1.0,85.0,29.0,0.029,-4.825968062505126e-05,-0.0001431237324140966,0.029000455513596535,-0.0022008116357028484,-0.0068576764315366745,-0.0007908606203272939,0.002660910366103053,0.0055277226492762566,6.161522469483316e-05,0.566570520401001,-0.00042843277333304286,0.788002073764801,0.00013199994282331318,3.958944320678711,60.0,0.0,7000.0,7000.0,7000.0,7000.0,32.766,32.766,0.28,32.766,0.027,2018.44970703125,809.9684448242188,36.32807922363281,,False,
1783642899.5382147,2026-07-09T17:21:39,721786,20260709_172133,,,,,,arming,,,,,,,,,False,-0.004004938993602991,-0.01784851960837841,0.9986311793327332,0.17587876319885254,0.6735040545463562,-0.18229274451732635,0.0,0.0,95.0,29.0,0.029,-4.825968062505126e-05,-0.0001431237324140966,0.029000455513596535,-0.0022008116357028484,-0.0068576764315366745,-0.0007908606203272939,0.0008434196934103966,-0.024746200069785118,-0.00037425191840156913,0.566570520401001,-0.00042843277333304286,0.788002073764801,0.00013199994282331318,3.958944320678711,60.0,0.0,7000.0,7000.0,7000.0,7000.0,32.766,32.766,0.28,32.766,0.027,2018.44970703125,809.9684448242188,36.32807922363281,,False,
1783642899.548346,2026-07-09T17:21:39,721798,20260709_172133,,,,,,arming,,,,,,,,,False,-0.004454497247934341,-0.01668785884976387,0.9956644177436829,0.681697428226471,-0.34633708000183105,0.30154967308044434,0.0,1.0,96.0,29.0,0.029,-0.00016776524716988206,-0.00028570927679538727,0.02898452803492546,-0.0042643616907298565,-0.009624212980270386,-0.0010129885049536824,0.0008434196934103966,-0.024746200069785118,-0.00037425191840156913,0.566570520401001,-0.00042843277333304286,0.788002073764801,0.00013199994282331318,3.958944320678711,60.0,0.0,7000.0,7000.0,7000.0,7000.0,32.766,32.766,0.28,32.766,0.027,2018.44970703125,809.9684448242188,36.32807922363281,,False,
1783642899.55848,2026-07-09T17:21:39,721806,20260709_172133,,,,,,arming,,,,,,,,,False,0.0006896535051055253,-0.01779213920235634,0.9986542463302612,-0.22017963230609894,0.11961904913187027,1.4105690717697144,0.0,0.0,97.0,29.0,0.029,-0.00016776524716988206,-0.00028570927679538727,0.02898452803492546,-0.0042643616907298565,-0.009624212980270386,-0.0010129885049536824,-0.0071286302991211414,0.0031897793523967266,0.0013703358126804233,0.566570520401001,-0.00042843277333304286,0.788002073764801,0.00013199994282331318,3.958944320678711,60.0,0.0,7000.0,7000.0,7000.0,7000.0,32.766,32.766,0.28,32.766,0.027,2018.44970703125,809.9684448242188,36.32807922363281,,False,
1783642899.5686111,2026-07-09T17:21:39,721818,20260709_172133,,,,,,arming,,,,,,,,,False,-0.010352430865168571,-0.019372818991541862,1.0024402141571045,0.44229862093925476,-0.41522443294525146,0.2680502235889435,0.0,0.0,94.0,29.0,0.029,-0.00025521821225993335,-0.0005101509159430861,0.028962906450033188,-0.0049719978123903275,-0.013083282858133316,-0.0010025618830695748,-0.0071286302991211414,0.0031897793523967266,0.0013703358126804233,0.028973691165447235,-0.0011556776007637382,6.504908469651127e-06,0.00018199952319264412,3.969501495361328,60.0,0.0,7000.0,7000.0,7000.0,7000.0,32.766,0.277,0.278,32.766,0.028,2018.44970703125,809.9684448242188,36.32807922363281,,False,
1783642899.5787451,2026-07-09T17:21:39,721826,20260709_172133,,,,,,arming,,,,,,,,,False,0.0035517069045454264,-0.012325447984039783,1.0036782026290894,-0.39263680577278137,0.16439905762672424,0.22057102620601654,0.0,-2.0,82.0,26.0,0.026,-0.00025521821225993335,-0.0005101509159430861,0.028962906450033188,-0.0049719978123903275,-0.013083282858133316,-0.0010025618830695748,-0.007073202636092901,0.005502150394022465,0.0015896983677521348,0.028973691165447235,-0.0011556776007637382,6.504908469651127e-06,0.00018199952319264412,3.969501495361328,60.0,0.0,7000.0,7000.0,7000.0,7000.0,32.766,0.277,0.278,32.766,0.028,2018.44970703125,809.9684448242188,36.32807922363281,,False,
1783642899.5888824,2026-07-09T17:21:39,721838,20260709_172133,,,,,,arming,,,,,,,,,False,-0.009412488900125027,-0.01989303156733513,0.9993684887886047,0.546629011631012,-0.20879487693309784,-0.8436547517776489,0.0,0.0,89.0,26.0,0.026,-2.5835155611275695e-05,-0.0007006155210547149,0.0273884367197752,-0.000963736092671752,-0.014947385527193546,-0.0027138805016875267,-0.007073202636092901,0.005502150394022465,0.0015896983677521348,0.028973691165447235,-0.0011556776007637382,6.504908469651127e-06,0.00018199952319264412,3.969501495361328,60.0,0.0,7000.0,7000.0,7000.0,7000.0,32.766,0.277,0.278,32.766,0.028,2018.44970703125,809.9684448242188,36.32807922363281,,False,
1783642899.5993967,2026-07-09T17:21:39,721846,20260709_172133,,,,,,arming,,,,,,,,,False,0.0034059553872793913,-0.011474930681288242,0.9997265338897705,-0.3976868689060211,-0.04812013730406761,0.00486230943351984,0.0,2.0,99.0,26.0,0.026,-2.5835155611275695e-05,-0.0007006155210547149,0.0273884367197752,-0.000963736092671752,-0.014947385527193546,-0.0027138805016875267,-0.03872352093458176,-0.0983535423874855,0.001426464063115418,0.028973691165447235,-0.0011556776007637382,6.504908469651127e-06,0.00018199952319264412,3.969501495361328,60.0,0.0,7000.0,7000.0,7000.0,7000.0,32.766,0.277,0.278,32.766,0.028,2018.44970703125,809.9684448242188,36.32807922363281,,False,
1783642899.6095388,2026-07-09T17:21:39,721858,20260709_172133,,,,,,arming,,,,,,,,,False,-0.009371520951390266,-0.020753702148795128,0.9986645579338074,0.37486010789871216,0.13911713659763336,0.4404914081096649,0.0,0.0,104.0,26.0,0.026,-0.0004079749633092433,-0.0008943307911977172,0.02733667381107807,-0.0056076026521623135,-0.016330134123563766,-0.0028345640748739243,-0.03872352093458176,-0.0983535423874855,0.001426464063115418,0.028973691165447235,-0.0011556776007637382,6.504908469651127e-06,0.00018199952319264412,3.969501495361328,60.0,0.0,7000.0,7000.0,7000.0,7000.0,32.766,0.277,0.278,32.766,0.028,2018.44970703125,809.9684448242188,36.32807922363281,,False,
1783642899.6196954,2026-07-09T17:21:39,721866,20260709_172133,,,,,,arming,,,,,,,,,False,0.004531824961304665,-0.009296167641878128,0.9987030625343323,0.08182671666145325,-0.2642933130264282,0.4072412848472595,0.0,-1.0,97.0,26.0,0.026,-0.0004079749633092433,-0.0008943307911977172,0.02733667381107807,-0.0056076026521623135,-0.016330134123563766,-0.0028345640748739243,-0.077174112200737,0.015047844499349594,0.0054806871339678764,0.02733667381107807,-0.0028550890274345875,3.861971435981104e-06,0.00022672646446153522,3.9642229080200195,70.0,0.0,7000.0,7000.0,7000.0,7000.0,32.766,0.277,0.278,0.393,0.028,2018.3731689453125,809.9754028320312,36.33027648925781,,False,
1783642899.6298294,2026-07-09T17:21:39,721878,20260709_172133,,,,,,arming,,,,,,,,,False,-0.005292735993862152,-0.020151834934949875,1.0019240379333496,-0.06966198235750198,0.0558079332113266,0.7009134292602539,0.0,-1.0,87.0,28.0,0.028,-2.3591008357470855e-05,-0.0009238205384463072,0.027572037652134895,-0.00040017039282247424,-0.015271713025867939,-0.001838969299569726,-0.077174112200737,0.015047844499349594,0.0054806871339678764,0.02733667381107807,-0.0028550890274345875,3.861971435981104e-06,0.00022672646446153522,3.9642229080200195,70.0,0.0,7000.0,7000.0,7000.0,7000.0,32.766,0.277,0.278,0.393,0.028,2018.3731689453125,809.9754028320312,36.33027648925781,,False,
1783642899.6399949,2026-07-09T17:21:39,721886,20260709_172133,,,,,,arming,,,,,,,,,False,-0.002826807787641883,-0.009964978322386742,1.0002450942993164,0.39163729548454285,-0.41304275393486023,-0.2872587740421295,0.0,1.0,100.0,28.0,0.028,-2.3591008357470855e-05,-0.0009238205384463072,0.027572037652134895,-0.00040017039282247424,-0.015271713025867939,-0.001838969299569726,-0.16968871653079987,-0.1265881508588791,0.006103127263486385,0.02733667381107807,-0.0028550890274345875,3.861971435981104e-06,0.00022672646446153522,3.9642229080200195,70.0,0.0,7000.0,7000.0,7000.0,7000.0,32.766,0.277,0.278,0.393,0.028,2018.3731689453125,809.9754028320312,36.33027648925781,,False,
1783642899.650174,2026-07-09T17:21:39,721898,20260709_172133,,,,,,arming,,,,,,,,,False,-0.0031253714114427567,-0.021027181297540665,0.9996610879898071,-0.06194582208991051,0.8711753487586975,0.10036177933216095,0.0,0.0,95.0,28.0,0.028,-0.0002678302116692066,-0.0010945769026875496,0.02753705158829689,-0.0031349980272352695,-0.016103344038128853,-0.0018656370230019093,-0.16968871653079987,-0.1265881508588791,0.006103127263486385,0.02733667381107807,-0.0028550890274345875,3.861971435981104e-06,0.00022672646446153522,3.9642229080200195,70.0,0.0,7000.0,7000.0,7000.0,7000.0,32.766,0.277,0.278,0.393,0.028,2018.3731689453125,809.9754028320312,36.33027648925781,,False,
1783642899.6603203,2026-07-09T17:21:39,721906,20260709_172133,,,,,,arming,,,,,,,,,False,-0.006871843244880438,-0.013589948415756226,0.9976704120635986,0.24399204552173615,-0.689693808555603,-0.7497237920761108,0.0,0.0,105.0,28.0,0.028,-0.0002678302116692066,-0.0010945769026875496,0.02753705158829689,-0.0031349980272352695,-0.016103344038128853,-0.0018656370230019093,-0.20520304143428802,-0.07242058962583542,0.003747265785932541,0.02733667381107807,-0.0028550890274345875,3.861971435981104e-06,0.00022672646446153522,3.9642229080200195,70.0,0.0,7000.0,7000.0,7000.0,7000.0,32.766,0.277,0.278,0.393,0.028,2018.3731689453125,809.9754028320312,36.33027648925781,,False,
1783642899.6704555,2026-07-09T17:21:39,721920,20260709_172133,,,,,,arming,,,,,,,,,False,-0.0007617269875481725,-0.01604037545621395,0.9978724718093872,-0.3943013548851013,0.8342385292053223,0.10580923408269882,0.0,1.0,99.0,28.0,0.028,-0.0005450547905638814,-0.0011985324090346694,0.02750060148537159,-0.005666892509907484,-0.015863534063100815,-0.0021356306970119476,-0.26133352518081665,-0.018260542303323746,0.004304401110857725,0.027517590671777725,-0.0020922303665429354,3.5510365705704316e-06,0.00025652392650954425,3.969501495361328,70.0,0.0,7000.0,7000.0,7000.0,7000.0,32.766,32.766,0.28400000000000003,0.393,0.03,2018.3731689453125,809.9754028320312,36.33027648925781,,False,
1783642899.680592,2026-07-09T17:21:39,721926,20260709_172133,,,,,,arming,,,,,,,,,False,-0.007886596955358982,-0.011142396368086338,0.9955695271492004,1.095175862312317,-0.2638174295425415,-0.5060647130012512,0.0,-2.0,84.0,27.0,0.027,-0.0005450547905638814,-0.0011985324090346694,0.02750060148537159,-0.005666892509907484,-0.015863534063100815,-0.0021356306970119476,-0.26133352518081665,-0.018260542303323746,0.004304401110857725,0.027517590671777725,-0.0020922303665429354,3.5510365705704316e-06,0.00025652392650954425,3.969501495361328,70.0,0.0,7000.0,7000.0,7000.0,7000.0,32.766,32.766,0.28400000000000003,0.393,0.03,2018.3731689453125,809.9754028320312,36.33027648925781,,False,
1783642899.690726,2026-07-09T17:21:39,721938,20260709_172133,,,,,,arming,,,,,,,,,False,0.007893414236605167,-0.012417574413120747,1.0005078315734863,-0.2389221489429474,0.5936294198036194,0.5182450413703918,0.0,0.0,84.0,27.0,0.027,-7.300038305402268e-06,-0.0013331923400983214,0.027242375537753105,-0.00012858935224357992,-0.015606281347572803,-0.003578110598027706,-0.26133352518081665,-0.018260542303323746,0.004304401110857725,0.027517590671777725,-0.0020922303665429354,3.5510365705704316e-06,0.00025652392650954425,3.969501495361328,70.0,0.0,7000.0,7000.0,7000.0,7000.0,32.766,32.766,0.28400000000000003,0.393,0.03,2018.3731689453125,809.9754028320312,36.33027648925781,,False,
1783642899.7008607,2026-07-09T17:21:39,721946,20260709_172133,,,,,,arming,,,,,,,,,False,-0.012761164456605911,-0.019992899149656296,0.9974362254142761,0.796809732913971,-0.23764120042324066,-0.624437153339386,0.0,2.0,96.0,27.0,0.027,-7.300038305402268e-06,-0.0013331923400983214,0.027242375537753105,-0.00012858935224357992,-0.015606281347572803,-0.003578110598027706,-0.29619771242141724,-0.1540069878101349,0.003937925677746534,0.027517590671777725,-0.0020922303665429354,3.5510365705704316e-06,0.00025652392650954425,3.969501495361328,70.0,0.0,7000.0,7000.0,7000.0,7000.0,32.766,32.766,0.28400000000000003,0.393,0.03,2018.3731689453125,809.9754028320312,36.33027648925781,,False,
1783642899.7111,2026-07-09T17:21:39,721961,20260709_172133,,,,,,arming,,,,,,,,,False,0.010883411392569542,-0.009322751313447952,0.9975796937942505,-0.26266705989837646,0.5391719341278076,0.6120910048484802,0.0,0.0,99.0,27.0,0.027,-0.0006877746200188994,-0.0014343836810439825,0.0271714236587286,-0.0061429329216480255,-0.01578683778643608,-0.003924214746803045,-0.3377600312232971,-0.02891281619668007,0.0033613182604312897,0.0271714236587286,-0.00402031559497118,3.811976284850971e-06,0.0002644866472110152,3.969501495361328,70.0,0.0,7000.0,7000.0,7000.0,7000.0,32.766,32.766,0.28400000000000003,0.393,0.03,2018.3731689453125,809.9754028320312,36.33027648925781,,False,
1783642899.7212508,2026-07-09T17:21:39,721966,20260709_172133,,,,,,arming,,,,,,,,,False,-0.013923713006079197,-0.019350415095686913,1.0003381967544556,0.9055806994438171,-0.5640339851379395,0.22589172422885895,0.0,0.0,96.0,27.0,0.027,-0.0006877746200188994,-0.0014343836810439825,0.0271714236587286,-0.0061429329216480255,-0.01578683778643608,-0.003924214746803045,-0.3377600312232971,-0.02891281619668007,0.0033613182604312897,0.0271714236587286,-0.00402031559497118,3.811976284850971e-06,0.0002644866472110152,3.958944320678711,70.0,0.0,7000.0,7000.0,7000.0,7000.0,32.766,32.766,0.28400000000000003,0.393,0.03,2018.3895263671875,809.97412109375,36.33769989013672,,False,
1783642899.7313898,2026-07-09T17:21:39,721980,20260709_172133,,,,,,arming,,,,,,,,,False,0.010321564972400665,-0.0029063457623124123,1.0061365365982056,-0.5383649468421936,-0.033389803022146225,0.5403851866722107,0.0,-1.0,89.0,27.0,0.027,-0.00034706672886386514,-0.0014553245855495334,0.027041969820857048,-0.0027252230793237686,-0.014644437469542027,-0.003910209983587265,-0.39233317971229553,-0.11196548491716385,0.005125070456415415,0.0271714236587286,-0.00402031559497118,3.811976284850971e-06,0.0002644866472110152,3.958944320678711,70.0,0.0,7000.0,7000.0,7000.0,7000.0,32.766,32.766,0.28400000000000003,0.393,0.03,2018.3895263671875,809.97412109375,36.33769989013672,,False,
1783642899.7415495,2026-07-09T17:21:39,721986,20260709_172133,,,,,,arming,,,,,,,,,False,-0.018206635490059853,-0.024272456765174866,0.9993683099746704,1.0332980155944824,-0.8682177662849426,0.0062146238051354885,0.0,1.0,95.0,27.0,0.027,-0.00034706672886386514,-0.0014553245855495334,0.027041969820857048,-0.0027252230793237686,-0.014644437469542027,-0.003910209983587265,-0.39233317971229553,-0.11196548491716385,0.005125070456415415,0.0271714236587286,-0.00402031559497118,3.811976284850971e-06,0.0002644866472110152,3.958944320678711,70.0,0.0,7000.0,7000.0,7000.0,7000.0,32.766,32.766,0.28400000000000003,0.393,0.03,2018.3895263671875,809.97412109375,36.33769989013672,,False,
1783642899.7516868,2026-07-09T17:21:39,722000,20260709_172133,,,,,,arming,,,,,,,,,False,0.006470846012234688,-0.007337555754929781,1.0019257068634033,-0.29771310091018677,0.4301738739013672,-0.04129059240221977,0.0,0.0,95.0,27.0,0.027,-0.0007420980837196112,-0.001518980716355145,0.026966942474246025,-0.005951811093837023,-0.014436213299632072,-0.0037275636568665504,-0.4261370897293091,-0.061134833842515945,0.003573910566046834,0.0271714236587286,-0.00402031559497118,3.811976284850971e-06,0.0002644866472110152,3.958944320678711,70.0,0.0,7000.0,7000.0,7000.0,7000.0,32.766,32.766,0.28400000000000003,0.393,0.03,2018.3895263671875,809.97412109375,36.33769989013672,,False,
1783642899.7618215,2026-07-09T17:21:39,722011,20260709_172133,,,,,,arming,,,,,,,,,False,-0.015219033695757389,-0.025697670876979828,0.9972125291824341,0.6930488348007202,0.6132509112358093,0.029884858056902885,0.0,0.0,100.0,27.0,0.027,-0.0007420980837196112,-0.001518980716355145,0.026966942474246025,-0.005951811093837023,-0.014436213299632072,-0.0037275636568665504,-0.4261370897293091,-0.061134833842515945,0.003573910566046834,0.026928992941975594,-0.003986562602221966,4.097541477676714e-06,0.00025483578792773187,3.958944320678711,70.0,0.0,7000.0,7000.0,7000.0,7000.0,32.766,32.766,0.28400000000000003,0.393,0.03,2018.3895263671875,809.97412109375,36.33769989013672,,False,
1783642899.7720206,2026-07-09T17:21:39,722020,20260709_172133,,,,,,arming,,,,,,,,,False,0.006911133415997028,-0.00501330615952611,1.0034912824630737,-0.427320271730423,0.25714969635009766,-0.24811671674251556,0.0,0.0,94.0,27.0,0.027,-0.0008679405436851084,-0.0018299828516319394,0.026890913024544716,-0.006610591430217028,-0.016174783930182457,-0.00375368376262486,-0.4206312894821167,-0.06398417800664902,0.00020548980683088303,0.026928992941975594,-0.003986562602221966,4.097541477676714e-06,0.00025483578792773187,3.969501495361328,70.0,0.0,7000.0,7000.0,7000.0,7000.0,32.766,32.766,0.278,0.393,0.027,2018.3895263671875,809.97412109375,36.33769989013672,,False,
1783642899.7821834,2026-07-09T17:21:39,722026,20260709_172133,,,,,,arming,,,,,,,,,False,-0.014137690886855125,-0.02763114683330059,0.9989538192749023,0.2879685163497925,-0.0668293759226799,0.16588616371154785,0.0,-1.0,85.0,27.0,0.027,-0.0008679405436851084,-0.0018299828516319394,0.026890913024544716,-0.006610591430217028,-0.016174783930182457,-0.00375368376262486,-0.4206312894821167,-0.06398417800664902,0.00020548980683088303,0.026928992941975594,-0.003986562602221966,4.097541477676714e-06,0.00025483578792773187,3.969501495361328,70.0,0.0,7000.0,7000.0,7000.0,7000.0,32.766,32.766,0.278,0.393,0.027,2018.3895263671875,809.97412109375,36.33769989013672,,False,
1783642899.7923172,2026-07-09T17:21:39,722040,20260709_172133,,,,,,arming,,,,,,,,,False,0.0016984627582132816,-0.006682051345705986,0.9980592727661133,0.31973668932914734,-0.6530763506889343,-0.3351862132549286,0.0,-2.0,88.0,27.0,0.027,0.0005108334589749575,-0.0015090466476976871,0.026873810216784477,0.0036491663195192814,-0.013345230370759964,-0.003549001645296812,-0.5033799409866333,-0.25922197103500366,0.0017492107581347227,0.026928992941975594,-0.003986562602221966,4.097541477676714e-06,0.00025483578792773187,3.969501495361328,70.0,0.0,7000.0,7000.0,7000.0,7000.0,32.766,32.766,0.278,0.393,0.027,2018.3895263671875,809.97412109375,36.33769989013672,,False,
1783642899.802451,2026-07-09T17:21:39,722046,20260709_172133,,,,,,arming,,,,,,,,,False,-0.01087870355695486,-0.02669111266732216,0.9988278746604919,0.03496473655104637,0.2285965234041214,0.3716660439968109,0.0,2.0,96.0,27.0,0.027,0.0005108334589749575,-0.0015090466476976871,0.026873810216784477,0.0036491663195192814,-0.013345230370759964,-0.003549001645296812,-0.5033799409866333,-0.25922197103500366,0.0017492107581347227,0.026928992941975594,-0.003986562602221966,4.097541477676714e-06,0.00025483578792773187,3.969501495361328,70.0,0.0,7000.0,7000.0,7000.0,7000.0,32.766,32.766,0.278,0.393,0.027,2018.3895263671875,809.97412109375,36.33769989013672,,False,
1783642899.8125923,2026-07-09T17:21:39,722061,20260709_172133,,,,,,arming,,,,,,,,,False,-0.001293364679440856,-0.0065812706016004086,0.9986727833747864,0.6222745776176453,-0.7421501874923706,-0.25374162197113037,0.0,1.0,99.0,27.0,0.027,-0.0007045647362247109,-0.001302457065321505,0.026807565242052078,-0.005051839631050825,-0.011469559744000435,-0.0037516062147915363,-0.5582922101020813,-0.10512948781251907,0.004149245098233223,0.026807565242052078,-0.003872454399242997,4.224551048537251e-06,0.00023884464462753385,3.969501495361328,70.0,0.0,7000.0,7000.0,7000.0,7000.0,32.766,32.766,0.278,0.393,0.027,2018.3895263671875,809.97412109375,36.33769989013672,,False,
1783642899.8227413,2026-07-09T17:21:39,722066,20260709_172133,,,,,,arming,,,,,,,,,False,-0.008329139091074467,-0.02342991717159748,1.0002765655517578,-0.08423562347888947,0.9148451089859009,0.2335386872291565,0.0,0.0,95.0,27.0,0.027,-0.0007045647362247109,-0.001302457065321505,0.026807565242052078,-0.005051839631050825,-0.011469559744000435,-0.0037516062147915363,-0.5582922101020813,-0.10512948781251907,0.004149245098233223,0.026807565242052078,-0.003872454399242997,4.224551048537251e-06,0.00023884464462753385,3.9642229080200195,70.0,0.0,7000.0,7000.0,7000.0,7000.0,32.766,32.766,0.278,0.4,0.027,2018.3731689453125,809.9752197265625,36.339324951171875,,False,
1783642899.8328748,2026-07-09T17:21:39,722080,20260709_172133,,,,,,arming,,,,,,,,,False,-0.00440206378698349,-0.0064056445844471455,1.0015991926193237,0.504092812538147,-1.1134928464889526,-0.4183580279350281,1.0,-1.0,85.0,29.0,0.029,-0.0003636928740888834,-0.0017457724316045642,0.02774886228144169,-0.002495266729965806,-0.013676921837031841,0.0018516521668061614,-0.5356441140174866,-0.15360645949840546,0.003686972428113222,0.026807565242052078,-0.003872454399242997,4.224551048537251e-06,0.00023884464462753385,3.9642229080200195,70.0,0.0,7000.0,7000.0,7000.0,7000.0,32.766,32.766,0.278,0.4,0.027,2018.3731689453125,809.9752197265625,36.339324951171875,,False,
1783642899.8430922,2026-07-09T17:21:39,722093,20260709_172133,,,,,,arming,,,,,,,,,False,-0.008209365420043468,-0.013472813181579113,0.9986429810523987,1.1026133298873901,-1.5162692070007324,-0.31060174107551575,0.0,1.0,91.0,29.0,0.029,-0.0003636928740888834,-0.0017457724316045642,0.02774886228144169,-0.002495266729965806,-0.013676921837031841,0.0018516521668061614,-0.5356441140174866,-0.15360645949840546,0.003686972428113222,0.026807565242052078,-0.003872454399242997,4.224551048537251e-06,0.00023884464462753385,3.9642229080200195,70.0,0.0,7000.0,7000.0,7000.0,7000.0,32.766,32.766,0.278,0.4,0.027,2018.3731689453125,809.9752197265625,36.339324951171875,,False,
1783642899.8532248,2026-07-09T17:21:39,722103,20260709_172133,,,,,,arming,,,,,,,,,False,-0.0005226885550655425,-0.02014695480465889,0.9961788058280945,-0.18538513779640198,0.6096056699752808,0.8330959677696228,0.0,0.0,95.0,29.0,0.029,-0.0007277466356754303,-0.0017376516479998827,0.027788573876023293,-0.0044752866961061954,-0.013203456997871399,0.0018790208268910646,-0.5613272786140442,-0.1188037171959877,0.004462808836251497,0.026807565242052078,-0.003872454399242997,4.224551048537251e-06,0.00023884464462753385,3.9642229080200195,70.0,0.0,7000.0,7000.0,7000.0,7000.0,32.766,32.766,0.278,0.4,0.027,2018.3731689453125,809.9752197265625,36.339324951171875,,False,
1783642899.8633564,2026-07-09T17:21:39,722113,20260709_172133,,,,,,arming,,,,,,,,,False,-0.0005226885550655425,-0.02014695480465889,0.9961788058280945,-0.18538513779640198,0.6096056699752808,0.8330959677696228,-1.0,0.0,95.0,29.0,0.029,-0.0007277466356754303,-0.0017376516479998827,0.027788573876023293,-0.0044752866961061954,-0.013203456997871399,0.0018790208268910646,-0.5613272786140442,-0.1188037171959877,0.004462808836251497,0.027809737250208855,0.001535809482447803,4.217012246954255e-06,0.0002248683013021946,3.969501495361328,70.0,0.0,7000.0,7000.0,7000.0,7000.0,32.766,32.766,0.278,0.4,0.027,2018.3731689453125,809.9752197265625,36.339324951171875,,False,
1783642899.8734906,2026-07-09T17:21:39,722123,20260709_172133,,,,,,arming,,,,,,,,,False,0.002987057901918888,-0.015295724384486675,0.9995882511138916,-0.4577726423740387,0.8864033818244934,0.9131842255592346,0.0,0.0,89.0,29.0,0.029,-0.00068500149063766,-0.0012759625678882003,0.027825331315398216,-0.004207298159599304,-0.009797881357371807,0.0014789537526667118,-0.6270294785499573,-0.12718230485916138,0.0040389238856732845,0.027809737250208855,0.001535809482447803,4.217012246954255e-06,0.0002248683013021946,3.969501495361328,70.0,0.0,7000.0,7000.0,7000.0,7000.0,32.766,0.275,0.28300000000000003,0.4,0.027,2018.3731689453125,809.9752197265625,36.339324951171875,,False,
1783642899.883622,2026-07-09T17:21:39,722133,20260709_172133,,,,,,arming,,,,,,,,,False,-0.016442514955997467,-0.020403007045388222,1.0002784729003906,1.2071808576583862,-1.5204625129699707,-0.29099562764167786,0.0,-1.0,83.0,28.0,0.028,-0.00068500149063766,-0.0012759625678882003,0.027825331315398216,-0.004207298159599304,-0.009797881357371807,0.0014789537526667118,-0.6270294785499573,-0.12718230485916138,0.0040389238856732845,0.027809737250208855,0.001535809482447803,4.217012246954255e-06,0.0002248683013021946,3.969501495361328,70.0,0.0,7000.0,7000.0,7000.0,7000.0,32.766,0.275,0.28300000000000003,0.4,0.027,2018.3731689453125,809.9752197265625,36.339324951171875,,False,
1783642899.8937547,2026-07-09T17:21:39,722143,20260709_172133,,,,,,arming,,,,,,,,,False,0.010183797217905521,-0.00832662358880043,0.9985901117324829,-1.010178565979004,1.305400013923645,1.0077388286590576,0.0,0.0,85.0,28.0,0.028,-0.00019123213132843375,-0.0012249518185853958,0.0279396865516901,-0.001147946109995246,-0.009067443199455738,0.0019055806333199143,-0.6491166353225708,-0.1760268360376358,0.005644152406603098,0.027809737250208855,0.001535809482447803,4.217012246954255e-06,0.0002248683013021946,3.969501495361328,70.0,0.0,7000.0,7000.0,7000.0,7000.0,32.766,0.275,0.28300000000000003,0.4,0.027,2018.3731689453125,809.9752197265625,36.339324951171875,,False,
1783642899.903887,2026-07-09T17:21:39,722153,20260709_172133,,,,,,arming,,,,,,,,,False,-0.018800247460603714,-0.02581491880118847,0.9999938607215881,1.205247163772583,-1.3648658990859985,-0.5932018160820007,0.0,0.0,102.0,28.0,0.028,-0.00019123213132843375,-0.0012249518185853958,0.0279396865516901,-0.001147946109995246,-0.009067443199455738,0.0019055806333199143,-0.6491166353225708,-0.1760268360376358,0.005644152406603098,0.027809737250208855,0.001535809482447803,4.217012246954255e-06,0.0002248683013021946,3.969501495361328,70.0,0.0,7000.0,7000.0,7000.0,7000.0,32.766,0.275,0.28300000000000003,0.4,0.027,2018.3731689453125,809.9752197265625,36.339324951171875,,False,
1783642899.914084,2026-07-09T17:21:39,722163,20260709_172133,,,,,,arming,,,,,,,,,False,-0.018800247460603714,-0.02581491880118847,0.9999938607215881,1.205247163772583,-1.3648658990859985,-0.5932018160820007,0.0,1.0,95.0,28.0,0.028,-0.0006990513647906482,-0.0012523154728114605,0.027976807206869125,-0.004161376506090164,-0.009191220626235008,0.0017093134811148047,-0.6619122624397278,-0.13530191779136658,0.006111722439527512,0.027976807206869125,0.0015931945526972413,4.149873802816728e-06,0.00021558545995503664,3.9642229080200195,70.0,0.0,7000.0,7000.0,7000.0,7000.0,32.766,0.275,0.28300000000000003,0.391,0.027,2018.3731689453125,809.9752197265625,36.339324951171875,,False,
1783642899.9242587,2026-07-09T17:21:39,722173,20260709_172133,,,,,,arming,,,,,,,,,False,-0.01991991326212883,-0.026657279580831528,1.001499891281128,0.823485255241394,-1.7436004877090454,-0.3550533354282379,0.0,0.0,96.0,28.0,0.028,-0.0006990513647906482,-0.0012523154728114605,0.027976807206869125,-0.004161376506090164,-0.009191220626235008,0.0017093134811148047,-0.6619122624397278,-0.13530191779136658,0.006111722439527512,0.027976807206869125,0.0015931945526972413,4.149873802816728e-06,0.00021558545995503664,3.9642229080200195,70.0,0.0,7000.0,7000.0,7000.0,7000.0,32.766,0.275,0.28300000000000003,0.391,0.027,2018.4278564453125,809.9707641601562,36.33415222167969,,False,
1783642899.9344006,2026-07-09T17:21:39,722183,20260709_172133,,,,,,arming,,,,,,,,,False,0.017180385068058968,-0.004023388493806124,0.9989315867424011,-0.8206638097763062,1.0209780931472778,0.2805889844894409,0.0,-1.0,84.0,25.0,0.025,-0.0002912370255216956,-0.001259558368474245,0.026673533022403717,-0.0016185678541660309,-0.008963186293840408,-0.004938363563269377,-0.6744740009307861,-0.17058086395263672,0.007265144027769566,0.027976807206869125,0.0015931945526972413,4.149873802816728e-06,0.00021558545995503664,3.9642229080200195,70.0,0.0,7000.0,7000.0,7000.0,7000.0,32.766,0.275,0.28300000000000003,0.391,0.027,2018.4278564453125,809.9707641601562,36.33415222167969,,False,
1783642899.944549,2026-07-09T17:21:39,722193,20260709_172133,,,,,,arming,,,,,,,,,False,-0.021345095708966255,-0.026816634461283684,0.9980979561805725,0.5942322015762329,-0.8547746539115906,-0.7318965196609497,0.0,0.0,99.0,25.0,0.025,-0.0002912370255216956,-0.001259558368474245,0.026673533022403717,-0.0016185678541660309,-0.008963186293840408,-0.004938363563269377,-0.6744740009307861,-0.17058086395263672,0.007265144027769566,0.027976807206869125,0.0015931945526972413,4.149873802816728e-06,0.00021558545995503664,3.9642229080200195,70.0,0.0,7000.0,7000.0,7000.0,7000.0,32.766,0.275,0.28300000000000003,0.391,0.027,2018.4278564453125,809.9707641601562,36.33415222167969,,False,
1783642899.9546833,2026-07-09T17:21:39,722203,20260709_172133,,,,,,arming,,,,,,,,,False,0.01130936574190855,-0.0005222585168667138,1.0009915828704834,-0.564669668674469,1.1332223415374756,0.6755267381668091,0.0,1.0,98.0,25.0,0.025,-0.0007834076532162726,-0.001265765051357448,0.026573393493890762,-0.00385890225879848,-0.008681953884661198,-0.0051954761147499084,-0.6864163875579834,-0.13650310039520264,0.005203887354582548,0.027976807206869125,0.0015931945526972413,4.149873802816728e-06,0.00021558545995503664,3.9642229080200195,70.0,0.0,7000.0,7000.0,7000.0,7000.0,32.766,0.275,0.28300000000000003,0.391,0.027,2018.4278564453125,809.9707641601562,36.33415222167969,,False,
1783642899.9648151,2026-07-09T17:21:39,722213,20260709_172133,,,,,,arming,,,,,,,,,False,0.01130936574190855,-0.0005222585168667138,1.0009915828704834,-0.564669668674469,1.1332223415374756,0.6755267381668091,0.0,-1.0,95.0,25.0,0.025,-0.0007834076532162726,-0.001265765051357448,0.026573393493890762,-0.00385890225879848,-0.008681953884661198,-0.0051954761147499084,-0.6864163875579834,-0.13650310039520264,0.005203887354582548,0.026523277163505554,-0.005185690242797136,4.075989181728801e-06,0.0002104700106428936,3.9642229080200195,70.0,0.0,7000.0,7000.0,7000.0,7000.0,32.766,32.766,0.277,0.391,0.027,2018.4278564453125,809.9707641601562,36.33415222167969,,False,
1783642899.974965,2026-07-09T17:21:39,722223,20260709_172133,,,,,,arming,,,,,,,,,False,0.011741452850401402,-0.0074530914425849915,0.9981626272201538,-0.11938028037548065,0.9220585823059082,0.1567983478307724,0.0,1.0,84.0,25.0,0.025,-0.0007042813231237233,-0.0011005629785358906,0.026472974568605423,-0.0035044860560446978,-0.007116774097084999,-0.005089161917567253,-0.7093232274055481,-0.1462389975786209,0.00577023858204484,0.026523277163505554,-0.005185690242797136,4.075989181728801e-06,0.0002104700106428936,3.9642229080200195,70.0,0.0,7000.0,7000.0,7000.0,7000.0,32.766,32.766,0.277,0.391,0.027,2018.4278564453125,809.9707641601562,36.33415222167969,,False,
1783642899.9851685,2026-07-09T17:21:39,722233,20260709_172133,,,,,,arming,,,,,,,,,False,-0.02341349981725216,-0.030102627351880074,0.9988601207733154,0.35933437943458557,-0.32929715514183044,-0.08699434995651245,0.0,0.0,86.0,29.0,0.029,-0.0007042813231237233,-0.0011005629785358906,0.026472974568605423,-0.0035044860560446978,-0.007116774097084999,-0.005089161917567253,-0.7093232274055481,-0.1462389975786209,0.00577023858204484,0.026523277163505554,-0.005185690242797136,4.075989181728801e-06,0.0002104700106428936,3.9642229080200195,70.0,0.0,7000.0,7000.0,7000.0,7000.0,32.766,32.766,0.277,0.391,0.027,2018.4278564453125,809.9707641601562,36.33415222167969,,False,
1783642899.995311,2026-07-09T17:21:39,722243,20260709_172133,,,,,,arming,,,,,,,,,False,0.014227653853595257,-0.0030009965412318707,0.9988922476768494,-0.17420507967472076,-0.00879763811826706,0.6520279049873352,0.0,-1.0,84.0,29.0,0.029,-0.00026753771817311645,-0.0011080385884270072,0.027541937306523323,-0.0013088606065139174,-0.007597682066261768,0.00021440954878926277,-0.7166997790336609,-0.18150658905506134,0.005816839635372162,0.026523277163505554,-0.005185690242797136,4.075989181728801e-06,0.0002104700106428936,3.9642229080200195,70.0,0.0,7000.0,7000.0,7000.0,7000.0,32.766,32.766,0.277,0.391,0.027,2018.4278564453125,809.9707641601562,36.33415222167969,,False,
1783642900.0054457,2026-07-09T17:21:40,722253,20260709_172133,,,,,,arming,,,,,,,,,False,-0.018815869465470314,-0.019122997298836708,0.9993944764137268,0.051260750740766525,-0.37950581312179565,-0.02519823983311653,0.0,1.0,98.0,29.0,0.029,-0.00026753771817311645,-0.0011080385884270072,0.027541937306523323,-0.0013088606065139174,-0.007597682066261768,0.00021440954878926277,-0.7166997790336609,-0.18150658905506134,0.005816839635372162,0.026523277163505554,-0.005185690242797136,4.075989181728801e-06,0.0002104700106428936,3.9642229080200195,70.0,0.0,7000.0,7000.0,7000.0,7000.0,32.766,32.766,0.277,0.391,0.027,2018.4278564453125,809.9707641601562,36.33415222167969,,False,
1783642900.0155904,2026-07-09T17:21:40,722263,20260709_172133,,,,,,arming,,,,,,,,,False,-0.018815869465470314,-0.019122997298836708,0.9993944764137268,0.051260750740766525,-0.37950581312179565,-0.02519823983311653,0.0,0.0,93.0,29.0,0.029,-0.0007207362214103341,-0.0011044795392081141,0.027544040232896805,-0.003716127248480916,-0.007026350125670433,1.8261447621625848e-05,-0.726043164730072,-0.15038427710533142,0.008415174670517445,0.027544040232896805,-8.052341581787914e-05,4.018609160993947e-06,0.00020813691662624478,3.9642229080200195,70.0,0.0,7000.0,7000.0,7000.0,7000.0,32.766,32.766,0.277,32.766,0.027,2018.4278564453125,809.9707641601562,36.33415222167969,,False,
1783642900.025932,2026-07-09T17:21:40,722273,20260709_172133,,,,,,arming,,,,,,,,,False,-0.017841311171650887,-0.01914415881037712,0.9992030262947083,0.19372040033340454,-0.37139397859573364,0.05685955658555031,0.0,0.0,97.0,29.0,0.029,-0.0007207362214103341,-0.0011044795392081141,0.027544040232896805,-0.003716127248480916,-0.007026350125670433,1.8261447621625848e-05,-0.726043164730072,-0.15038427710533142,0.008415174670517445,0.027544040232896805,-8.052341581787914e-05,4.018609160993947e-06,0.00020813691662624478,3.9642229080200195,70.0,0.0,7000.0,7000.0,7000.0,7000.0,32.766,32.766,0.277,32.766,0.027,2018.3294677734375,809.9791870117188,36.32400131225586,,False,
1783642900.0361896,2026-07-09T17:21:40,722286,20260709_172133,,,,,,arming,,,,,,,,,False,0.01025231834501028,-0.006336603779345751,1.0023574829101562,0.5065569877624512,-0.0548955462872982,-0.09712979942560196,0.0,0.0,97.0,27.0,0.027,-0.0002572720404714346,-0.0010861926712095737,0.027306905016303062,-0.0012151198461651802,-0.006020748522132635,-0.0011982490541413426,-0.7341769933700562,-0.18386101722717285,0.008390603587031364,0.027544040232896805,-8.052341581787914e-05,4.018609160993947e-06,0.00020813691662624478,3.9642229080200195,70.0,0.0,7000.0,7000.0,7000.0,7000.0,32.766,32.766,0.277,32.766,0.027,2018.3294677734375,809.9791870117188,36.32400131225586,,False,
1783642900.046407,2026-07-09T17:21:40,722296,20260709_172133,,,,,,arming,,,,,,,,,False,-0.012402010150253773,-0.016357475891709328,1.0006362199783325,0.18715566396713257,0.6235003471374512,0.3481937646865845,0.0,2.0,100.0,27.0,0.027,-0.0002572720404714346,-0.0010861926712095737,0.027306905016303062,-0.0012151198461651802,-0.006020748522132635,-0.0011982490541413426,-0.7341769933700562,-0.18386101722717285,0.008390603587031364,0.027544040232896805,-8.052341581787914e-05,4.018609160993947e-06,0.00020813691662624478,3.9642229080200195,70.0,0.0,7000.0,7000.0,7000.0,7000.0,32.766,32.766,0.277,32.766,0.027,2018.3294677734375,809.9791870117188,36.32400131225586,,False,
1783642900.0566287,2026-07-09T17:21:40,722306,20260709_172133,,,,,,arming,,,,,,,,,False,0.015766402706503868,-0.009757584892213345,1.0003376007080078,0.38564303517341614,-0.06159776449203491,0.458123117685318,0.0,-1.0,104.0,27.0,0.027,-0.00112350273411721,-0.0010702012805268168,0.027286211028695107,-0.00527482433244586,-0.00527129927650094,-0.000889411719981581,-0.736293375492096,-0.13904540240764618,0.008289636112749577,0.027544040232896805,-8.052341581787914e-05,4.018609160993947e-06,0.00020813691662624478,3.9642229080200195,70.0,0.0,7000.0,7000.0,7000.0,7000.0,32.766,32.766,0.277,32.766,0.027,2018.3294677734375,809.9791870117188,36.32400131225586,,False,
